ts,id,Ax,Ay,Az,Gx,Gy,Gz
-0.756,IMU0,0.795146484375,-9.90580078125,-0.67060546875,-1.2605042016806722,-1.1204481792717087,-0.350140056022409
-0.746,IMU0,0.795146484375,-9.90580078125,-0.67060546875,-1.3305322128851542,-1.4705882352941178,0
-0.736,IMU0,0.43110351562500004,-10.001601562500001,-0.5652246093750001,-0.42016806722689076,-2.380952380952381,0.4901960784313726
-0.726,IMU0,0.17244140625,-10.193203125,-0.46942382812500005,0.21008403361344538,-1.8907563025210086,0.350140056022409
-0.716,IMU0,0.258662109375,-10.720107421875001,-0.42152343750000004,-1.400560224089636,-2.6610644257703084,0.8403361344537815
-0.706,IMU0,-0.9388476562500001,-13.824052734375002,-0.22992187500000003,-2.450980392156863,-7.773109243697479,0.7703081232492998
-0.696,IMU0,0.18202148437500001,-18.834433593750003,-0.028740234375000003,-1.8207282913165266,-9.033613445378151,-0.700280112044818
-0.686,IMU0,-0.46942382812500005,-7.156318359375001,0.01916015625,-1.8907563025210086,-11.414565826330533,0.42016806722689076
-0.676,IMU0,-0.9196875000000001,0.047900390625000004,1.044228515625,0.1400560224089636,-14.985994397759104,-0.350140056022409
-0.666,IMU0,-0.63228515625,-12.013417968750002,1.5232324218750002,-2.170868347338936,-13.025210084033613,-0.8403361344537815
-0.656,IMU0,-0.6227050781250001,-9.551337890625001,3.343447265625,-3.431372549019608,-3.081232492997199,-0.8403361344537815
-0.646,IMU0,0.45984375000000005,-8.660390625,-1.2837304687500002,-8.19327731092437,-3.5714285714285716,0
-0.636,IMU0,-0.32572265625,-11.783496093750001,-2.05013671875,-1.1904761904761905,-2.801120448179272,0.0700280112044818
-0.626,IMU0,1.140029296875,-6.1312500000000005,-3.6308496093750002,-4.901960784313726,12.044817927170868,1.050420168067227
-0.616,IMU0,-0.2682421875,-12.703183593750001,-5.336103515625,-1.3305322128851542,-2.030812324929972,0.9803921568627452
-0.606,IMU0,-0.01916015625,-13.929433593750002,-4.569697265625,-1.1204481792717087,-6.302521008403362,-0.21008403361344538
-0.596,IMU0,-1.70525390625,-7.941884765625001,-3.5637890625,-2.100840336134454,15.546218487394958,2.100840336134454
-0.586,IMU0,-0.9867480468750001,-10.308164062500001,1.8489550781250002,2.380952380952381,24.369747899159666,1.4705882352941178
-0.576,IMU0,-1.044228515625,-10.873388671875,3.7841308593750003,0.2801120448179272,8.403361344537815,-0.700280112044818
-0.566,IMU0,-0.12454101562500001,-11.160791015625001,7.884404296875,-0.5602240896358543,9.873949579831933,-0.42016806722689076
-0.556,IMU0,1.0346484375,-7.616162109375001,4.3014550781250005,-5.6722689075630255,9.103641456582633,-0.8403361344537815
-0.546,IMU0,0.335302734375,-12.626542968750002,3.975732421875,-5.182072829131653,-3.2212885154061626,-1.1204481792717087
-0.536,IMU0,2.01181640625,-10.959609375000001,-1.312470703125,-11.554621848739496,3.5014005602240896,-1.4705882352941178
-0.526,IMU0,1.5998730468750002,-8.114326171875,-4.3301953125,-8.823529411764707,4.131652661064426,0.6302521008403361
-0.516,IMU0,0.63228515625,-6.964716796875001,-7.156318359375001,-7.563025210084034,2.5910364145658265,0.7703081232492998
-0.506,IMU0,1.4082714843750002,-8.976533203125001,-5.029541015625,-0.5602240896358543,0.8403361344537815,0.1400560224089636
-0.496,IMU0,0.15328125,-8.880732421875,-4.799619140625,-1.4705882352941178,4.69187675070028,1.5406162464985995
-0.486,IMU0,-0.45026367187500005,-8.737031250000001,-2.921923828125,0.4901960784313726,2.6610644257703084,0.8403361344537815
-0.476,IMU0,2.12677734375,-9.398056640625,-1.7244140625000002,-1.680672268907563,-1.7507002801120448,-0.5602240896358543
-0.466,IMU0,0,-9.627978515625001,-0.19160156250000002,0.350140056022409,-11.554621848739496,1.050420168067227
-0.456,IMU0,-0.12454101562500001,-9.091494140625,0.076640625,-1.1204481792717087,-26.190476190476193,-0.700280112044818
-0.446,IMU0,-0.43110351562500004,-9.963281250000001,0.0383203125,-1.1204481792717087,-32.35294117647059,-1.1204481792717087
-0.436,IMU0,-0.047900390625000004,-11.122470703125,1.101708984375,-0.42016806722689076,-18.977591036414566,-0.350140056022409
-0.426,IMU0,0.7855664062500001,-10.969189453125,1.302890625,-1.400560224089636,-11.624649859943979,0.4901960784313726
-0.416,IMU0,0.9005273437500001,-10.40396484375,1.43701171875,-2.3109243697478994,-19.747899159663866,-0.0700280112044818
-0.406,IMU0,-0.8430468750000001,-10.260263671875,0.36404296875000003,-3.151260504201681,-19.607843137254903,1.050420168067227
-0.396,IMU0,-1.9255957031250002,-10.432705078125,0.49816406250000006,-3.081232492997199,-6.512605042016807,1.8907563025210086
-0.386,IMU0,-0.795146484375,-9.474697265625,-1.0346484375,-6.372549019607844,-1.8907563025210086,0.700280112044818
-0.376,IMU0,-1.70525390625,-9.034013671875,-2.692001953125,-2.73109243697479,-4.411764705882353,0.9803921568627452
-0.366,IMU0,-3.23806640625,-8.957373046875,-4.263134765625001,-4.901960784313726,-2.73109243697479,1.2605042016806722
-0.356,IMU0,-1.4465917968750002,-9.5034375,-5.240302734375001,-3.2913165266106446,0.1400560224089636,-1.1204481792717087
-0.346,IMU0,-0.795146484375,-9.254355468750001,-5.2498828125,0,-0.6302521008403361,-0.7703081232492998
-0.336,IMU0,-1.149609375,-10.28900390625,-2.596201171875,1.6106442577030813,4.411764705882353,-0.4901960784313726
-0.326,IMU0,1.1879296875,-9.67587890625,-1.3412109375,1.4705882352941178,10.994397759103641,-1.1204481792717087
-0.316,IMU0,0.076640625,-9.4651171875,0.40236328125000004,2.6610644257703084,9.803921568627452,0.8403361344537815
-0.306,IMU0,-0.7855664062500001,-9.417216796875001,1.2070898437500002,-0.5602240896358543,11.554621848739496,0.9803921568627452
-0.296,IMU0,0.0383203125,-10.212363281250001,2.2608984375000003,0.1400560224089636,17.016806722689076,0.21008403361344538
-0.286,IMU0,0.09580078125000001,-10.67220703125,1.9926562500000002,-2.380952380952381,17.296918767507005,1.1204481792717087
-0.276,IMU0,-0.38320312500000003,-10.854228515625001,2.375859375,-1.8207282913165266,12.254901960784315,0.8403361344537815
-0.266,IMU0,-0.20118164062500002,-10.835068359375,1.0154882812500001,-3.2913165266106446,9.243697478991598,0.0700280112044818
-0.256,IMU0,-0.086220703125,-9.762099609375001,-0.613125,-3.361344537815126,5.2521008403361344,-0.1400560224089636
-0.246,IMU0,-0.067060546875,-9.455537109375001,-1.82021484375,-3.2913165266106446,1.400560224089636,-0.5602240896358543
-0.236,IMU0,0.5460644531250001,-10.451865234375001,-3.1326855468750003,-2.8711484593837535,-0.8403361344537815,-0.9103641456582633
-0.226,IMU0,0.9867480468750001,-9.867480468750001,-3.31470703125,-2.380952380952381,-5.2521008403361344,-0.700280112044818
-0.216,IMU0,0.20118164062500002,-9.963281250000001,-3.0656250000000003,0.350140056022409,-8.543417366946779,-0.350140056022409
-0.206,IMU0,0.47900390625000006,-9.455537109375001,-1.78189453125,1.1204481792717087,-4.621848739495799,-0.21008403361344538
-0.196,IMU0,0.354462890625,-9.263935546875,-0.44068359375000005,-1.050420168067227,-2.100840336134454,-0.0700280112044818
-0.186,IMU0,-0.01916015625,-9.63755859375,-0.20118164062500002,-0.6302521008403361,0.1400560224089636,0.1400560224089636
-0.176,IMU0,0.45984375000000005,-10.068662109375001,0.28740234375,0.8403361344537815,0.7703081232492998,0.350140056022409
-0.166,IMU0,-0.11496093750000001,-10.260263671875,0.47900390625000006,-0.6302521008403361,0.1400560224089636,0.2801120448179272
-0.156,IMU0,-1.082548828125,-10.28900390625,0.48858398437500006,-1.4705882352941178,2.6610644257703084,0.4901960784313726
-0.146,IMU0,-0.5843847656250001,-9.570498046875,0.296982421875,-2.5210084033613445,5.392156862745098,0.2801120448179272
-0.136,IMU0,0.70892578125,-10.3848046875,-0.057480468750000006,-1.8907563025210086,4.621848739495799,-0.350140056022409
-0.126,IMU0,0.18202148437500001,-8.8903125,-1.063388671875,-2.73109243697479,1.8207282913165266,0.1400560224089636
-0.116,IMU0,0.5077441406250001,-14.130615234375002,-1.5711328125000001,-1.5406162464985995,1.6106442577030813,0.21008403361344538
-0.106,IMU0,0.43110351562500004,-56.618261718750006,-0.5652246093750001,-2.380952380952381,0.9803921568627452,0.350140056022409
-0.096,IMU0,0.9005273437500001,-57.95947265625001,-7.1658984375,-6.652661064425771,-0.0700280112044818,0.5602240896358543
-0.086,IMU0,0.45026367187500005,-58.45763671875,-9.340576171875,-1.6106442577030813,-5.2521008403361344,0.4901960784313726
-0.076,IMU0,-0.6035449218750001,-56.781123046875,-9.695039062500001,0.42016806722689076,-6.162464985994398,0.42016806722689076
-0.066,IMU0,-0.335302734375,-58.543857421875,-6.389912109375,5.882352941176471,4.481792717086835,0.5602240896358543
-0.056,IMU0,-0.22992187500000003,-60.019189453125,-1.1112890625,7.492997198879552,1.7507002801120448,-0.0700280112044818
-0.046,IMU0,-0.15328125,-59.30068359375,5.719306640625001,8.823529411764707,0,0.0700280112044818
-0.036,IMU0,0.11496093750000001,-59.41564453125,12.042158203125,7.563025210084034,0.42016806722689076,0.21008403361344538
-0.026,IMU0,-0.057480468750000006,-57.643330078125004,15.452666015625,1.1904761904761905,-9.453781512605042,-0.42016806722689076
-0.016,IMU0,0.01916015625,-55.94765625,12.559482421875002,-5.6722689075630255,-11.134453781512606,-0.700280112044818
-0.006,IMU0,-0.17244140625,-57.394248046875006,6.409072265625,-11.27450980392157,-4.551820728291316,-0.9103641456582633
0.004,IMU0,2.0309765625000002,-58.716298828125005,-2.136357421875,-14.42577030812325,3.431372549019608,-0.21008403361344538
0.014,IMU0,0.6610253906250001,-57.365507812500006,-8.401728515625,-10.854341736694678,-3.431372549019608,0.5602240896358543
0.024,IMU0,0.680185546875,-56.024296875000005,-11.141630859375,-5.46218487394958,-9.663865546218489,0.9803921568627452
0.034,IMU0,-2.4141796875000003,-53.983740234375006,-16.76513671875,-6.932773109243698,-12.254901960784315,1.4705882352941178
0.044,IMU0,-1.74357421875,-55.660253906250006,-12.3774609375,3.641456582633053,-6.23249299719888,0.2801120448179272
0.054,IMU0,-1.427431640625,-55.32495117187501,-7.6257421875,5.9523809523809526,-16.80672268907563,-1.1904761904761905
0.064,IMU0,-2.3471191406250003,-56.86734375,1.4178515625,10.854341736694678,-25.210084033613448,-1.8907563025210086
0.074,IMU0,-0.8238867187500001,-58.084013671875006,6.207890625,6.652661064425771,-29.271708683473392,-3.361344537815126
0.084,IMU0,-1.2070898437500002,-57.490048828125005,6.255791015625,1.8907563025210086,-37.39495798319328,-3.431372549019608
0.094,IMU0,-1.676513671875,-55.104609375,7.999365234375,1.5406162464985995,-22.338935574229694,-3.081232492997199
0.104,IMU0,2.059716796875,-54.711826171875,6.571933593750001,-3.5014005602240896,-7.983193277310924,-3.2212885154061626
0.114,IMU0,0.7472460937500001,-55.698574218750004,6.18873046875,-2.3109243697478994,-14.705882352941178,-1.7507002801120448
0.124,IMU0,-0.5748046875,-56.7523828125,4.033212890625,-5.112044817927171,-9.033613445378151,-0.6302521008403361
0.134,IMU0,-0.689765625,-57.911572265625004,3.036884765625,-5.46218487394958,5.882352941176471,-0.350140056022409
0.144,IMU0,-0.3448828125,-59.808427734375,1.8106347656250001,-7.142857142857143,18.27731092436975,0.350140056022409
0.154,IMU0,-1.62861328125,-59.243203125,-0.28740234375,-8.123249299719888,8.753501400560225,-0.0700280112044818
0.164,IMU0,-1.9639160156250002,-59.39648437500001,-1.063388671875,-6.162464985994398,3.431372549019608,-1.400560224089636
0.174,IMU0,0.6514453125,-57.882832031250004,-6.207890625,-9.173669467787116,-2.2408963585434174,-3.431372549019608
0.184,IMU0,1.504072265625,-60.450292968750006,-6.830595703125001,-4.481792717086835,4.131652661064426,-1.5406162464985995
0.194,IMU0,0.48858398437500006,-59.923388671875,-4.042792968750001,-1.4705882352941178,5.46218487394958,-0.0700280112044818
0.204,IMU0,-0.9388476562500001,-61.389140625,-1.178349609375,-0.6302521008403361,6.372549019607844,-0.6302521008403361
0.214,IMU0,1.1304492187500002,-60.613154296875,-3.81287109375,-5.8123249299719895,13.65546218487395,-1.1204481792717087
0.224,IMU0,1.159189453125,-61.168798828125006,-9.484277343750001,-3.9215686274509807,14.705882352941178,0
0.234,IMU0,-0.076640625,-58.38099609375001,-2.29921875,5.2521008403361344,13.795518207282914,1.1904761904761905
0.244,IMU0,-0.6035449218750001,-58.630078125000004,0.296982421875,3.5014005602240896,3.781512605042017,-0.42016806722689076
0.254,IMU0,0.5460644531250001,-61.28375976562501,5.278623046875,3.991596638655462,3.781512605042017,-0.9103641456582633
0.264,IMU0,0.833466796875,-58.697138671875,3.171005859375,-1.1204481792717087,7.212885154061625,0.42016806722689076
0.274,IMU0,-0.22992187500000003,-57.8253515625,6.6294140625,2.8711484593837535,-7.42296918767507,0
0.284,IMU0,-0.70892578125,-61.561582031250005,7.0221972656250005,-3.011204481792717,-9.38375350140056,-1.2605042016806722
0.294,IMU0,-0.5748046875,-61.408300781250006,6.466552734375,-4.69187675070028,-8.123249299719888,-0.5602240896358543
0.304,IMU0,-1.85853515625,-64.770908203125,6.753955078125,-7.983193277310924,-12.114845938375352,-1.2605042016806722
0.314,IMU0,-0.296982421875,-61.58074218750001,-4.722978515625,-15.826330532212886,-14.145658263305323,-3.011204481792717
0.324,IMU0,0.689765625,-60.83349609375001,-3.5350488281250003,-5.9523809523809526,-15.126050420168069,-2.73109243697479
0.334,IMU0,0.5843847656250001,-59.56892578125,-4.569697265625,-8.893557422969188,-21.498599439775912,-2.170868347338936
0.344,IMU0,-0.335302734375,-56.3691796875,-13.000166015625,-10.434173669467787,-27.380952380952383,-2.030812324929972
0.354,IMU0,1.51365234375,-60.517353515625004,-9.857900390625,0.4901960784313726,-16.31652661064426,-2.5210084033613445
0.364,IMU0,2.24173828125,-63.55423828125,-5.776787109375,3.5014005602240896,-6.652661064425771,-1.3305322128851542
0.374,IMU0,0.47900390625000006,-61.360400390625,-3.50630859375,3.2913165266106446,-6.372549019607844,0.9803921568627452
0.384,IMU0,1.1879296875,-64.579306640625,5.431904296875,10.014005602240896,-4.411764705882353,0.42016806722689076
0.394,IMU0,0.20118164062500002,-61.97352539062501,9.647138671875,4.551820728291316,-3.711484593837535,0.5602240896358543
0.404,IMU0,1.07296875,-61.97352539062501,6.092929687500001,4.551820728291316,-3.711484593837535,0.5602240896358543
0.414,IMU0,1.07296875,-58.936640625,6.092929687500001,-2.450980392156863,16.03641456582633,2.6610644257703084
0.424,IMU0,-0.6418652343750001,-59.750947265625,9.627978515625001,-2.8711484593837535,-6.372549019607844,1.400560224089636
0.434,IMU0,-3.5925292968750004,-61.73402343750001,3.956572265625,-9.313725490196079,-17.50700280112045,1.5406162464985995
0.444,IMU0,-4.837939453125,-60.316171875,-9.06275390625,-16.246498599439775,-0.5602240896358543,1.1904761904761905
0.454,IMU0,-3.4105078125,-60.32575195312501,-8.190966796875001,-2.5210084033613445,-18.76750700280112,-3.431372549019608
0.464,IMU0,-0.22992187500000003,-58.716298828125005,-4.6942382812500005,1.5406162464985995,-13.025210084033613,-4.761904761904762
0.474,IMU0,2.6632617187500003,-62.308828125000005,-4.071533203125,2.5210084033613445,-18.417366946778714,-4.481792717086835
0.484,IMU0,1.37953125,-62.366308593750006,5.26904296875,4.271708683473389,-29.131652661064425,-2.6610644257703084
0.494,IMU0,3.23806640625,-62.155546875000006,8.296347656250001,1.050420168067227,-40.476190476190474,-2.9411764705882355
0.504,IMU0,0.7855664062500001,-59.521025390625006,1.8393750000000002,-8.823529411764707,-46.21848739495798,-0.350140056022409
0.514,IMU0,-3.7841308593750003,-61.609482421875,-6.3036914062500005,-9.593837535014005,-38.23529411764706,1.5406162464985995
0.524,IMU0,-0.67060546875,-64.33022460937501,-3.00814453125,1.8207282913165266,-37.46498599439776,-3.431372549019608
0.534,IMU0,3.3721875000000003,-63.372216796875,5.278623046875,1.5406162464985995,-30.532212885154063,-3.361344537815126
0.544,IMU0,0.12454101562500001,-65.067890625,3.5446289062500003,-3.8515406162464987,-29.341736694677873,0.8403361344537815
0.554,IMU0,-3.1231054687500004,-64.943349609375,-2.2608984375000003,-7.072829131652662,-23.459383753501402,1.5406162464985995
0.564,IMU0,-1.8106347656250001,-63.142294921875006,-3.745810546875,-3.2212885154061626,-18.837535014005603,-1.9607843137254903
0.574,IMU0,0.24908203125000003,-66.12169921875001,2.136357421875,1.6106442577030813,-18.207282913165265,-4.411764705882353
0.584,IMU0,2.308798828125,-67.25214843750001,3.6116894531250003,-2.3109243697478994,-13.725490196078432,-2.170868347338936
0.594,IMU0,-0.47900390625000006,-64.86670898437501,-1.0154882812500001,-7.002801120448179,-16.666666666666668,0.2801120448179272
0.604,IMU0,-3.16142578125,-66.47616210937501,-3.73623046875,-4.201680672268908,-19.88795518207283,-2.030812324929972
0.614,IMU0,0.23950195312500003,-66.112119140625,-0.01916015625,1.3305322128851542,-20.72829131652661,-5.112044817927171
0.624,IMU0,2.2704785156250002,-66.552802734375,3.400927734375,0.5602240896358543,-22.829131652661065,-4.621848739495799
0.634,IMU0,-0.13412109375,-66.60070312500001,0.057480468750000006,-4.621848739495799,-24.50980392156863,-1.6106442577030813
0.644,IMU0,-2.768642578125,-66.112119140625,-3.5446289062500003,-3.641456582633053,-26.96078431372549,-1.9607843137254903
0.654,IMU0,-1.8010546875000002,-68.373017578125,-0.871787109375,0.5602240896358543,-29.551820728291318,-5.9523809523809526
0.664,IMU0,1.9543359375000002,-64.75174804687501,2.8740234375,0.700280112044818,-31.65266106442577,-7.002801120448179
0.674,IMU0,1.2933105468750001,-64.598466796875,1.43701171875,-2.801120448179272,-33.403361344537814,-4.131652661064426
0.684,IMU0,-2.529140625,-65.09663085937501,-2.9027636718750003,-3.991596638655462,-34.38375350140056,-2.9411764705882355
0.694,IMU0,-2.0309765625000002,-64.100302734375,-1.3699511718750002,0.2801120448179272,-36.97478991596639,-6.162464985994398
0.704,IMU0,1.753154296875,-65.24033203125,2.615361328125,2.030812324929972,-39.35574229691877,-8.61344537815126
0.714,IMU0,2.08845703125,-64.20568359375001,1.5711328125000001,-1.7507002801120448,-41.10644257703081,-6.372549019607844
0.724,IMU0,-1.4944921875000001,-65.019990234375,-1.868115234375,-3.011204481792717,-42.50700280112045,-4.131652661064426
0.734,IMU0,-2.375859375,-64.732587890625,-2.1076171875000003,0.21008403361344538,-43.34733893557423,-6.722689075630252
0.744,IMU0,1.0346484375,-63.697939453125,1.8776953125000002,2.73109243697479,-44.88795518207283,-9.663865546218489
0.754,IMU0,2.0213964843750003,-63.659619140625004,2.232158203125,-1.1204481792717087,-47.47899159663866,-8.053221288515406
0.764,IMU0,-1.1304492187500002,-65.249912109375,-1.3316308593750001,-3.781512605042017,-48.529411764705884,-5.46218487394958
0.774,IMU0,-2.864443359375,-64.99125000000001,-2.6441015625000004,-1.1204481792717087,-49.50980392156863,-7.072829131652662
0.784,IMU0,-0.871787109375,-64.53140625,1.063388671875,2.030812324929972,-49.719887955182074,-10.434173669467787
0.794,IMU0,1.9543359375000002,-66.322880859375,2.4141796875000003,0.4901960784313726,-50.98039215686275,-10.434173669467787
0.804,IMU0,0.067060546875,-66.12169921875001,-0.38320312500000003,-3.081232492997199,-52.59103641456583,-7.42296918767507
0.814,IMU0,-2.9794042968750003,-66.1025390625,-2.20341796875,-1.680672268907563,-51.96078431372549,-7.563025210084034
0.824,IMU0,-1.4944921875000001,-67.53955078125,0.44068359375000005,1.4705882352941178,-52.94117647058824,-11.064425770308123
0.834,IMU0,1.89685546875,-66.2175,2.31837890625,0.8403361344537815,-53.641456582633054,-11.974789915966387
0.844,IMU0,1.0538085937500001,-67.02222656250001,0.7280859375000001,-3.081232492997199,-54.55182072829132,-9.453781512605042
0.854,IMU0,-1.9351757812500001,-65.681015625,-1.791474609375,-2.5210084033613445,-55.04201680672269,-8.333333333333334
0.864,IMU0,-1.504072265625,-63.803320312500006,-0.9196875000000001,0.6302521008403361,-54.69187675070028,-10.92436974789916
0.874,IMU0,1.5615527343750002,-69.101103515625,1.70525390625,1.680672268907563,-53.221288515406165,-12.605042016806724
0.884,IMU0,2.002236328125,-66.13127929687501,1.2166699218750001,-0.9803921568627452,-53.01120448179272,-10.57422969187675
0.894,IMU0,-1.22625,-66.974326171875,-1.1687695312500002,-2.5210084033613445,-52.030812324929975,-8.263305322128852
0.904,IMU0,-2.615361328125,-65.681015625,-1.5615527343750002,-0.9803921568627452,-51.75070028011205,-10.014005602240896
0.914,IMU0,-0.076640625,-65.594794921875,1.0538085937500001,0.7703081232492998,-50.70028011204482,-12.955182072829132
0.924,IMU0,1.9351757812500001,-67.44375000000001,1.6477734375000002,-0.42016806722689076,-49.57983193277311,-11.974789915966387
0.934,IMU0,-0.32572265625,-66.61986328125,-0.7664062500000001,-1.8907563025210086,-48.529411764705884,-9.033613445378151
0.944,IMU0,-3.171005859375,-67.644931640625,-1.753154296875,-0.7703081232492998,-48.59943977591037,-9.593837535014005
0.954,IMU0,-1.3699511718750002,-67.61619140625001,0.42152343750000004,1.4705882352941178,-48.319327731092436,-12.675070028011206
0.964,IMU0,2.002236328125,-64.58888671875,1.9639160156250002,0.9803921568627452,-47.40896358543418,-13.305322128851541
0.974,IMU0,0.5652246093750001,-65.7959765625,0.0383203125,-2.030812324929972,-46.84873949579832,-10.084033613445378
0.984,IMU0,-2.4525,-64.44518554687501,-1.1112890625,-1.9607843137254903,-45.44817927170869,-9.453781512605042
0.994,IMU0,-1.62861328125,-65.633115234375,-0.143701171875,-0.2801120448179272,-44.11764705882353,-12.46498599439776
1.004,IMU0,1.9351757812500001,-67.88443359375,1.5615527343750002,0,-43.4873949579832,-13.515406162464986
1.014,IMU0,1.5711328125000001,-68.39217773437501,0.5748046875,-1.680672268907563,-42.36694677871149,-10.854341736694678
1.024,IMU0,-1.753154296875,-66.2558203125,-1.37953125,-2.170868347338936,-41.45658263305322,-9.033613445378151
1.034,IMU0,-2.078876953125,-65.8726171875,-0.6227050781250001,-0.2801120448179272,-39.075630252100844,-11.554621848739496
1.044,IMU0,0.737666015625,-68.03771484375001,1.36037109375,0.6302521008403361,-36.06442577030813,-13.65546218487395
1.054,IMU0,1.8010546875000002,-65.1828515625,0.6227050781250001,-2.380952380952381,-34.80392156862745,-11.554621848739496
1.064,IMU0,-1.1112890625,-64.20568359375001,-1.044228515625,-2.3109243697478994,-33.61344537815126,-8.96358543417367
1.074,IMU0,-3.31470703125,-65.479833984375,-0.7472460937500001,-0.700280112044818,-32.35294117647059,-10.434173669467787
1.084,IMU0,-0.22034179687500002,-65.1828515625,0.5843847656250001,0.2801120448179272,-31.092436974789916,-13.58543417366947
1.094,IMU0,1.9639160156250002,-68.746640625,1.005908203125,-0.7703081232492998,-29.551820728291318,-12.605042016806724
1.104,IMU0,-0.6035449218750001,-65.24033203125,-0.45026367187500005,-2.3109243697478994,-29.411764705882355,-9.243697478991598
1.114,IMU0,-3.5254687500000004,-65.75765625000001,-0.8622070312500001,-0.6302521008403361,-28.36134453781513,-9.943977591036415
1.124,IMU0,-1.1304492187500002,-65.067890625,0.8430468750000001,-0.5602240896358543,-27.73109243697479,-13.445378151260504
1.134,IMU0,2.040556640625,-66.437841796875,1.1304492187500002,-1.400560224089636,-26.750700280112046,-13.305322128851541
1.144,IMU0,0.5652246093750001,-66.78272460937501,-0.11496093750000001,-2.5210084033613445,-27.450980392156865,-10.154061624649861
1.154,IMU0,-2.366279296875,-66.073798828125,-1.2645703125,-2.3109243697478994,-26.190476190476193,-9.593837535014005
1.164,IMU0,-1.47533203125,-67.43416992187501,0.0383203125,-0.1400560224089636,-24.719887955182074,-12.324929971988796
1.174,IMU0,2.0213964843750003,-65.73849609375,0.680185546875,0,-24.439775910364148,-13.515406162464986
1.184,IMU0,1.2454101562500002,-66.19833984375,-0.28740234375,-1.5406162464985995,-24.719887955182074,-10.364145658263306
1.194,IMU0,-2.1938378906250002,-63.717099609375005,-0.32572265625,-2.170868347338936,-25.07002801120448,-9.103641456582633
1.204,IMU0,-2.375859375,-67.07970703125001,-0.7472460937500001,-1.050420168067227,-24.789915966386555,-11.414565826330533
1.214,IMU0,0.8047265625000001,-68.30595703125,0.51732421875,0.1400560224089636,-23.80952380952381,-13.23529411764706
1.224,IMU0,1.2933105468750001,-65.58521484375001,0.5843847656250001,-1.400560224089636,-24.089635854341736,-11.064425770308123
1.234,IMU0,-1.9543359375000002,-65.115791015625,-0.24908203125000003,-2.380952380952381,-24.229691876750703,-8.753501400560225
1.244,IMU0,-2.845283203125,-66.7923046875,-0.32572265625,-1.3305322128851542,-23.949579831932773,-10.714285714285715
1.254,IMU0,0.2682421875,-64.713427734375,0.39278320312500004,-0.5602240896358543,-24.299719887955185,-13.23529411764706
1.264,IMU0,1.389111328125,-64.78048828125,0.5843847656250001,-0.9103641456582633,-23.73949579831933,-11.414565826330533
1.274,IMU0,-1.149609375,-65.27865234375001,0.22992187500000003,-1.4705882352941178,-24.439775910364148,-8.96358543417367
1.284,IMU0,-2.60578125,-68.7849609375,-0.5652246093750001,-0.8403361344537815,-24.369747899159666,-10.084033613445378
1.294,IMU0,-0.2682421875,-65.987578125,-0.162861328125,-0.9103641456582633,-24.299719887955185,-12.53501400560224
1.304,IMU0,1.868115234375,-64.311064453125,0.46942382812500005,-1.050420168067227,-24.229691876750703,-11.764705882352942
1.314,IMU0,-0.277822265625,-66.77314453125001,0.3448828125,-0.4901960784313726,-24.299719887955185,-8.753501400560225
1.324,IMU0,-2.62494140625,-67.15634765625,-0.40236328125000004,-0.700280112044818,-23.669467787114847,-9.033613445378151
1.334,IMU0,-0.9867480468750001,-64.53140625,-0.5843847656250001,-0.5602240896358543,-22.478991596638657,-11.69467787114846
1.344,IMU0,1.159189453125,-64.3398046875,0.19160156250000002,0.21008403361344538,-23.459383753501402,-11.484593837535014
1.354,IMU0,0.39278320312500004,-64.74216796875001,0.45026367187500005,-0.5602240896358543,-24.649859943977592,-8.893557422969188
1.364,IMU0,-2.4908203125000004,-63.7266796875,-0.2682421875,-0.6302521008403361,-25.420168067226893,-8.123249299719888
1.374,IMU0,-1.8393750000000002,-65.45109375,-0.38320312500000003,0.0700280112044818,-23.949579831932773,-10.434173669467787
1.384,IMU0,0.9675878906250001,-64.74216796875001,0.42152343750000004,0.8403361344537815,-25.490196078431374,-11.27450980392157
1.394,IMU0,0.22034179687500002,-65.805556640625,1.159189453125,0,-26.190476190476193,-8.823529411764707
1.404,IMU0,-2.155517578125,-66.24624023437501,-0.09580078125000001,-1.8207282913165266,-26.5406162464986,-7.703081232492997
1.414,IMU0,-1.8010546875000002,-64.27274414062501,-0.28740234375,-0.9103641456582633,-25.980392156862745,-9.523809523809524
1.424,IMU0,0.536484375,-64.464345703125,0.37362304687500003,0.5602240896358543,-25.490196078431374,-10.504201680672269
1.434,IMU0,0.48858398437500006,-65.594794921875,0.948427734375,-0.2801120448179272,-27.3109243697479,-8.543417366946779
1.444,IMU0,-1.580712890625,-64.50266601562501,0,-1.050420168067227,-28.221288515406165,-7.142857142857143
1.454,IMU0,-1.85853515625,-67.11802734375,-0.833466796875,-0.7703081232492998,-28.711484593837536,-8.403361344537815
1.464,IMU0,0.6610253906250001,-66.399521484375,-0.11496093750000001,0.42016806722689076,-28.0812324929972,-9.523809523809524
1.474,IMU0,0.5269042968750001,-65.73849609375,0.46942382812500005,0.21008403361344538,-29.551820728291318,-7.633053221288516
1.484,IMU0,-1.350791015625,-68.16225585937501,-0.162861328125,-0.5602240896358543,-30.602240896358545,-6.302521008403362
1.494,IMU0,-1.8106347656250001,-64.100302734375,-0.718505859375,-0.42016806722689076,-29.971988795518207,-7.002801120448179
1.504,IMU0,-0.42152343750000004,-66.04505859375,-0.3065625,0.5602240896358543,-30.602240896358545,-8.263305322128852
1.514,IMU0,0.296982421875,-64.732587890625,0.536484375,1.3305322128851542,-30.32212885154062,-7.42296918767507
1.524,IMU0,-1.0538085937500001,-66.342041015625,0.67060546875,0.9103641456582633,-31.022408963585434,-5.6722689075630255
1.534,IMU0,-2.2513183593750004,-65.58521484375001,-0.3448828125,-0.0700280112044818,-32.212885154061624,-6.0924369747899165
1.544,IMU0,-0.680185546875,-65.326552734375,-0.28740234375,0.700280112044818,-34.2436974789916,-7.42296918767507
1.554,IMU0,0.44068359375000005,-65.58521484375001,0.536484375,0.9103641456582633,-35.57422969187675,-6.792717086834735
1.564,IMU0,-0.718505859375,-65.58521484375001,0.536484375,0.9103641456582633,-35.57422969187675,-6.792717086834735
1.574,IMU0,-0.718505859375,-65.604375,0.833466796875,0.6302521008403361,-36.20448179271709,-5.112044817927171
1.584,IMU0,-1.906435546875,-64.80922851562501,-0.10538085937500001,-0.5602240896358543,-37.81512605042017,-5.182072829131653
1.594,IMU0,-1.1879296875,-66.571962890625,-0.46942382812500005,0.6302521008403361,-38.095238095238095,-6.162464985994398
1.604,IMU0,0.28740234375,-67.27130859375,0.24908203125000003,1.1204481792717087,-37.39495798319328,-6.022408963585434
1.614,IMU0,-0.42152343750000004,-66.19833984375,0.13412109375,0.350140056022409,-38.93557422969188,-4.481792717086835
1.624,IMU0,-1.82021484375,-66.23666015625001,-0.756826171875,-0.0700280112044818,-38.16526610644258,-3.781512605042017
1.634,IMU0,-1.2645703125,-63.851220703125,-0.3065625,0.42016806722689076,-38.02521008403362,-4.901960784313726
1.644,IMU0,-0.46942382812500005,-64.675107421875,0.143701171875,0.700280112044818,-38.095238095238095,-4.971988795518207
1.654,IMU0,-0.48858398437500006,-65.249912109375,0.20118164062500002,0.6302521008403361,-38.72549019607843,-3.781512605042017
1.664,IMU0,-1.7339941406250001,-65.019990234375,-0.354462890625,0.1400560224089636,-38.16526610644258,-3.151260504201681
1.674,IMU0,-1.9351757812500001,-66.514482421875,-0.258662109375,0.350140056022409,-38.865546218487395,-3.5714285714285716
1.684,IMU0,-0.8813671875000001,-65.62353515625,0.39278320312500004,0.9103641456582633,-37.885154061624654,-4.271708683473389
1.694,IMU0,-0.46942382812500005,-64.732587890625,0.7280859375000001,0.1400560224089636,-36.62464985994398,-3.361344537815126
1.704,IMU0,-1.4561718750000001,-65.24033203125,0.39278320312500004,-0.7703081232492998,-36.62464985994398,-2.2408963585434174
1.714,IMU0,-1.8776953125000002,-67.01264648437501,-0.076640625,2.100840336134454,-33.753501400560225,-2.5210084033613445
1.724,IMU0,-1.044228515625,-64.97208984375,0.057480468750000006,1.3305322128851542,-32.42296918767507,-2.9411764705882355
1.734,IMU0,-0.6514453125,-66.9455859375,0.756826171875,1.2605042016806722,-31.232492997198882,-2.5210084033613445
1.744,IMU0,-1.140029296875,-65.66185546875,0.28740234375,0.4901960784313726,-30.3921568627451,-1.5406162464985995
1.754,IMU0,-1.619033203125,-66.801884765625,-0.40236328125000004,0.1400560224089636,-28.781512605042018,-1.2605042016806722
1.764,IMU0,-1.0346484375,-65.000830078125,-0.39278320312500004,-0.1400560224089636,-28.50140056022409,-1.8207282913165266
1.774,IMU0,-0.775986328125,-65.01041015625,0.19160156250000002,1.1204481792717087,-27.521008403361346,-1.6106442577030813
1.784,IMU0,-1.149609375,-65.22117187500001,0.09580078125000001,-0.350140056022409,-27.100840336134453,-0.7703081232492998
1.794,IMU0,-1.3316308593750001,-66.47616210937501,-0.6514453125,0.350140056022409,-24.789915966386555,-0.42016806722689076
1.804,IMU0,-2.136357421875,-68.69874023437501,-0.3065625,0.2801120448179272,-23.10924369747899,-0.2801120448179272
1.814,IMU0,-1.2549902343750001,-65.374453125,0.335302734375,1.2605042016806722,-21.42857142857143,-0.9803921568627452
1.824,IMU0,-0.6227050781250001,-67.02222656250001,0.689765625,1.5406162464985995,-19.257703081232496,-0.6302521008403361
1.834,IMU0,-1.36037109375,-68.76580078125001,-0.20118164062500002,-0.7703081232492998,-18.137254901960784,0.4901960784313726
1.844,IMU0,-2.01181640625,-68.27721679687501,0.0383203125,-0.6302521008403361,-15.896358543417367,0.5602240896358543
1.854,IMU0,-1.235830078125,-66.66776367187501,0.871787109375,-0.4901960784313726,-14.915966386554622,-0.0700280112044818
1.864,IMU0,0.086220703125,-65.66185546875,0.45026367187500005,0.0700280112044818,-14.84593837535014,0.350140056022409
1.874,IMU0,-0.536484375,-65.64269531250001,0.296982421875,0.0700280112044818,-19.677871148459385,1.050420168067227
1.884,IMU0,-1.1687695312500002,-66.31330078125,0.028740234375000003,-0.6302521008403361,-24.019607843137255,1.680672268907563
1.894,IMU0,-1.3699511718750002,-65.96841796875,-0.13412109375,-0.350140056022409,-29.20168067226891,1.050420168067227
1.904,IMU0,-0.44068359375000005,-65.34571289062501,0.19160156250000002,0.2801120448179272,-32.563025210084035,0.8403361344537815
1.914,IMU0,-0.55564453125,-65.40319335937501,-0.057480468750000006,0.21008403361344538,-37.11484593837535,1.6106442577030813
1.924,IMU0,-1.4561718750000001,-65.019990234375,-0.258662109375,-0.42016806722689076,-43.417366946778714,2.030812324929972
1.934,IMU0,-1.389111328125,-65.16369140625001,0.15328125,-0.4901960784313726,-48.109243697478995,1.4705882352941178
1.944,IMU0,-0.67060546875,-64.426025390625,0.22992187500000003,0,-53.36134453781513,1.4705882352941178
1.954,IMU0,-1.1687695312500002,-63.97576171875001,-0.01916015625,-0.0700280112044818,-58.753501400560225,1.8207282913165266
1.964,IMU0,-1.0538085937500001,-64.790068359375,0.19160156250000002,-0.5602240896358543,-62.18487394957983,1.9607843137254903
1.974,IMU0,-1.3699511718750002,-64.6463671875,0.28740234375,0.2801120448179272,-66.03641456582633,2.100840336134454
1.984,IMU0,-0.814306640625,-64.45476562500001,0.42152343750000004,1.400560224089636,-72.19887955182074,1.4705882352941178
1.994,IMU0,-1.1304492187500002,-64.83796875,0.5077441406250001,1.9607843137254903,-76.26050420168067,1.680672268907563
2.004,IMU0,-1.2454101562500002,-65.154111328125,0.23950195312500003,-0.0700280112044818,-77.59103641456583,2.380952380952381
2.014,IMU0,-1.5615527343750002,-64.713427734375,0.13412109375,0.350140056022409,-76.47058823529412,2.3109243697478994
2.024,IMU0,-0.9005273437500001,-64.53140625,0.6418652343750001,-0.2801120448179272,-76.82072829131653,1.8907563025210086
2.034,IMU0,-0.7280859375000001,-64.75174804687501,0.40236328125000004,-0.350140056022409,-77.87114845938376,2.2408963585434174
2.044,IMU0,-1.2837304687500002,-64.426025390625,0.086220703125,-1.1204481792717087,-76.12044817927172,2.5910364145658265
2.054,IMU0,-1.619033203125,-65.728916015625,0.17244140625,0.350140056022409,-74.15966386554622,3.011204481792717
2.064,IMU0,-1.3220507812500002,-63.851220703125,-0.028740234375000003,0.5602240896358543,-73.03921568627452,2.5910364145658265
2.074,IMU0,-1.0921289062500001,-65.12537109375,0.49816406250000006,-0.0700280112044818,-72.61904761904762,2.6610644257703084
2.084,IMU0,-1.47533203125,-65.0295703125,0.047900390625000004,0,-73.80952380952381,3.081232492997199
2.094,IMU0,-1.6477734375000002,-65.537314453125,0.10538085937500001,-0.9103641456582633,-71.21848739495799,2.8711484593837535
2.104,IMU0,-1.2454101562500002,-64.4930859375,0.18202148437500001,-0.4901960784313726,-67.92717086834735,3.011204481792717
2.114,IMU0,-1.2933105468750001,-64.483505859375,0.36404296875000003,-0.42016806722689076,-65.12605042016807,3.361344537815126
2.124,IMU0,-1.3220507812500002,-67.25214843750001,0.22034179687500002,-1.050420168067227,-61.76470588235294,3.361344537815126
2.134,IMU0,-1.025068359375,-65.70017578125001,0.24908203125000003,0.21008403361344538,-58.12324929971989,3.431372549019608
2.144,IMU0,-1.0154882812500001,-62.98901367187501,1.07296875,1.7507002801120448,-54.97198879551821,3.5714285714285716
2.154,IMU0,-1.005908203125,-64.09072265625001,0.6035449218750001,0.42016806722689076,-52.801120448179276,3.5014005602240896
2.164,IMU0,-0.795146484375,-64.85712890625,-0.32572265625,-0.8403361344537815,-50.910364145658264,3.9215686274509807
2.174,IMU0,-1.0538085937500001,-63.65003906250001,0.22992187500000003,0.5602240896358543,-47.47899159663866,3.991596638655462
2.184,IMU0,-1.0538085937500001,-65.920517578125,0.718505859375,2.030812324929972,-43.34733893557423,4.131652661064426
2.194,IMU0,-0.890947265625,-65.01041015625,0.2682421875,-0.42016806722689076,-39.285714285714285,4.271708683473389
2.204,IMU0,-0.9963281250000001,-65.2978125,-0.42152343750000004,-2.100840336134454,-36.34453781512605,4.481792717086835
2.214,IMU0,-1.2166699218750001,-64.847548828125,0.3065625,0.700280112044818,-33.05322128851541,4.411764705882353
2.224,IMU0,-1.005908203125,-63.803320312500006,0.70892578125,0.5602240896358543,-30.952380952380953,4.551820728291316
2.234,IMU0,-0.6227050781250001,-63.870380859375004,0.59396484375,-2.2408963585434174,-30.32212885154062,4.481792717086835
2.244,IMU0,-1.4082714843750002,-64.09072265625001,-0.37362304687500003,-2.450980392156863,-29.901960784313726,4.761904761904762
2.254,IMU0,-1.178349609375,-64.97208984375,0.12454101562500001,-0.700280112044818,-27.3109243697479,4.131652661064426
2.264,IMU0,-0.680185546875,-63.630878906250004,1.082548828125,0.7703081232492998,-26.050420168067227,3.991596638655462
2.274,IMU0,-0.8430468750000001,-62.586650390625,0.39278320312500004,0.0700280112044818,-24.57983193277311,4.061624649859944
2.284,IMU0,-0.5652246093750001,-66.47616210937501,0.44068359375000005,-1.680672268907563,-24.019607843137255,3.781512605042017
2.294,IMU0,-1.36037109375,-66.96474609375001,0.20118164062500002,-1.7507002801120448,-22.128851540616246,3.8515406162464987
2.304,IMU0,-0.680185546875,-64.28232421875,0.41194335937500004,-2.6610644257703084,-22.128851540616246,3.5014005602240896
2.314,IMU0,-0.7280859375000001,-65.22117187500001,0.5748046875,-1.8907563025210086,-22.198879551820728,3.361344537815126
2.324,IMU0,-0.9005273437500001,-64.27274414062501,0.13412109375,-2.3109243697478994,-21.568627450980394,3.361344537815126
2.334,IMU0,-0.795146484375,-63.544658203125,0.086220703125,-0.700280112044818,-19.95798319327731,3.081232492997199
2.344,IMU0,-0.67060546875,-65.24033203125,0.19160156250000002,-1.8207282913165266,-19.537815126050422,3.081232492997199
2.354,IMU0,-1.07296875,-63.717099609375005,-0.13412109375,-2.801120448179272,-21.35854341736695,2.9411764705882355
2.364,IMU0,-1.140029296875,-64.02366210937501,0.21076171875000002,-2.380952380952381,-17.296918767507005,2.8711484593837535
2.374,IMU0,-0.8813671875000001,-64.119462890625,0.55564453125,-2.5910364145658265,-12.044817927170868,3.081232492997199
2.384,IMU0,-0.852626953125,-66.58154296875,0.5843847656250001,-3.9215686274509807,-9.73389355742297,3.2212885154061626
2.394,IMU0,-1.5232324218750002,-67.031806640625,0.12454101562500001,-0.7703081232492998,-9.103641456582633,3.081232492997199
2.404,IMU0,-1.2166699218750001,-63.429697265625,0.0383203125,-2.030812324929972,-11.69467787114846,2.3109243697478994
2.414,IMU0,-0.40236328125000004,-63.774580078125005,0.7664062500000001,-1.1204481792717087,-10.084033613445378,1.8207282913165266
2.424,IMU0,-0.910107421875,-66.265400390625,0.63228515625,-3.711484593837535,-12.394957983193278,2.3109243697478994
2.434,IMU0,-0.5269042968750001,-63.70751953125001,0.37362304687500003,-1.680672268907563,-11.904761904761905,2.170868347338936
2.444,IMU0,-1.101708984375,-62.902792968750006,-0.028740234375000003,-4.131652661064426,-13.725490196078432,1.7507002801120448
2.454,IMU0,-0.48858398437500006,-64.828388671875,0.067060546875,-3.9215686274509807,-12.394957983193278,1.8207282913165266
2.464,IMU0,-0.15328125,-64.80922851562501,0.7280859375000001,-2.380952380952381,-13.095238095238097,1.400560224089636
2.474,IMU0,-0.39278320312500004,-63.151875000000004,0.15328125,-5.042016806722689,-11.27450980392157,2.2408963585434174
2.484,IMU0,-1.1304492187500002,-61.9639453125,0.162861328125,-4.411764705882353,-10.084033613445378,2.450980392156863
2.494,IMU0,-0.8047265625000001,-63.73625976562501,0.48858398437500006,-3.361344537815126,-10.014005602240896,1.4705882352941178
2.504,IMU0,-0.613125,-64.86670898437501,0.09580078125000001,-3.711484593837535,-13.23529411764706,1.1904761904761905
2.514,IMU0,-0.59396484375,-66.821044921875,0.24908203125000003,-3.8515406162464987,-12.394957983193278,1.8207282913165266
2.524,IMU0,-0.929267578125,-64.45476562500001,0.7664062500000001,-2.73109243697479,-11.624649859943979,1.5406162464985995
2.534,IMU0,-1.120869140625,-62.29924804687501,0.51732421875,-4.271708683473389,-13.025210084033613,1.400560224089636
2.544,IMU0,-0.890947265625,-63.76500000000001,0.24908203125000003,-3.5014005602240896,-12.815126050420169,1.050420168067227
2.554,IMU0,-0.929267578125,-63.812900390625,0.12454101562500001,-1.9607843137254903,-14.005602240896359,0.8403361344537815
2.564,IMU0,-0.9388476562500001,-63.49675781250001,0.22034179687500002,-3.081232492997199,-18.067226890756302,0.5602240896358543
2.574,IMU0,-0.718505859375,-63.487177734375,1.178349609375,-1.050420168067227,-18.69747899159664,0
2.584,IMU0,-0.296982421875,-64.14820312500001,0.8622070312500001,-1.5406162464985995,-19.11764705882353,-0.1400560224089636
2.594,IMU0,-0.6610253906250001,-63.70751953125001,0.10538085937500001,-3.5014005602240896,-20.028011204481793,0
2.604,IMU0,-1.1687695312500002,-63.697939453125,0.162861328125,-2.9411764705882355,-21.218487394957982,0.1400560224089636
2.614,IMU0,-0.6227050781250001,-62.69203125000001,0.7280859375000001,-3.641456582633053,-20.238095238095237,-0.21008403361344538
2.624,IMU0,-0.44068359375000005,-64.24400390625,0.39278320312500004,-4.411764705882353,-20.65826330532213,-0.2801120448179272
2.634,IMU0,-0.21076171875000002,-64.92418945312501,0.277822265625,-7.633053221288516,-21.708683473389357,0
2.644,IMU0,-0.910107421875,-63.429697265625,0.028740234375000003,-2.9411764705882355,-19.747899159663866,0.42016806722689076
2.654,IMU0,-0.9867480468750001,-63.899121093750004,0.45026367187500005,-1.4705882352941178,-17.366946778711487,-0.1400560224089636
2.664,IMU0,-0.756826171875,-64.93376953125001,1.063388671875,-2.3109243697478994,-16.80672268907563,-0.42016806722689076
2.674,IMU0,-1.2166699218750001,-63.46801757812501,0.21076171875000002,-4.201680672268908,-19.817927170868348,-0.1400560224089636
2.684,IMU0,-0.910107421875,-64.483505859375,0.277822265625,-1.6106442577030813,-20.868347338935575,-1.050420168067227
2.694,IMU0,-1.025068359375,-63.362636718750004,0.9005273437500001,-4.131652661064426,-25.910364145658264,-1.400560224089636
2.704,IMU0,-0.47900390625000006,-63.161455078125,1.22625,-2.5910364145658265,-24.859943977591037,-1.400560224089636
2.714,IMU0,-0.8238867187500001,-63.142294921875006,0.28740234375,-2.5910364145658265,-24.859943977591037,-1.400560224089636
2.724,IMU0,-0.8238867187500001,-63.142294921875006,0.28740234375,-4.69187675070028,-26.750700280112046,-1.2605042016806722
2.734,IMU0,-0.948427734375,-62.950693359375,0.316142578125,-7.42296918767507,-32.63305322128852,-1.680672268907563
2.744,IMU0,-0.49816406250000006,-62.797412109375,1.082548828125,-7.212885154061625,-34.38375350140056,-2.3109243697478994
2.754,IMU0,-0.076640625,-62.8069921875,0.680185546875,-4.551820728291316,-37.18487394957983,-2.450980392156863
2.764,IMU0,-0.775986328125,-64.03324218750001,0.39278320312500004,-4.761904761904762,-41.52661064425771,-2.030812324929972
2.774,IMU0,-0.9867480468750001,-63.66919921875,0.22034179687500002,-7.633053221288516,-45.23809523809524,-2.380952380952381
2.784,IMU0,-0.3448828125,-64.253583984375,0.55564453125,-5.322128851540617,-45.23809523809524,-3.081232492997199
2.794,IMU0,-0.6035449218750001,-65.88219726562501,0.833466796875,-6.372549019607844,-46.70868347338936,-2.801120448179272
2.804,IMU0,-1.0346484375,-62.816572265625005,0.36404296875000003,-3.2212885154061626,-48.66946778711485,-2.5210084033613445
2.814,IMU0,-1.120869140625,-63.70751953125001,0.8047265625000001,-3.431372549019608,-47.689075630252105,-3.011204481792717
2.824,IMU0,-1.005908203125,-62.969853515625005,1.063388671875,-3.641456582633053,-50.35014005602241,-3.081232492997199
2.834,IMU0,-0.6610253906250001,-62.1172265625,0.354462890625,-7.633053221288516,-55.81232492997199,-3.431372549019608
2.844,IMU0,-1.044228515625,-64.100302734375,0.9196875000000001,-4.411764705882353,-54.34173669467788,-3.361344537815126
2.854,IMU0,-1.3699511718750002,-66.706083984375,0.9867480468750001,-4.411764705882353,-61.134453781512605,-3.8515406162464987
2.864,IMU0,-0.6610253906250001,-64.0715625,0.8430468750000001,-2.6610644257703084,-62.60504201680673,-4.341736694677872
2.874,IMU0,-0.19160156250000002,-63.027333984375005,0.63228515625,-1.3305322128851542,-66.10644257703082,-4.481792717086835
2.884,IMU0,-1.0538085937500001,-63.372216796875,0.929267578125,-5.042016806722689,-71.9187675070028,-3.8515406162464987
2.894,IMU0,-0.8813671875000001,-65.12537109375,1.4849121093750002,-4.69187675070028,-71.35854341736695,-4.131652661064426
2.904,IMU0,-0.756826171875,-65.88219726562501,0.63228515625,-3.781512605042017,-76.5406162464986,-4.411764705882353
2.914,IMU0,-0.536484375,-63.1901953125,0.067060546875,-5.322128851540617,-84.10364145658264,-4.831932773109244
2.924,IMU0,-0.5843847656250001,-62.38546875,0.9771679687500001,-2.100840336134454,-90.12605042016807,-4.831932773109244
2.934,IMU0,-1.082548828125,-63.70751953125001,1.753154296875,-2.801120448179272,-94.67787114845939,-4.551820728291316
2.944,IMU0,-1.37953125,-62.1172265625,0.49816406250000006,-3.151260504201681,-99.29971988795519,-5.182072829131653
2.954,IMU0,-0.7280859375000001,-62.615390625,0.0383203125,-0.9103641456582633,-104.06162464985995,-5.5322128851540615
2.964,IMU0,-0.795146484375,-61.90646484375,1.1687695312500002,0.21008403361344538,-107.00280112044818,-5.6722689075630255
2.974,IMU0,-1.2645703125,-63.09439453125,2.002236328125,-1.1904761904761905,-110.36414565826331,-5.2521008403361344
2.984,IMU0,-1.350791015625,-63.429697265625,0.67060546875,1.050420168067227,-114.35574229691878,-5.602240896358544
2.994,IMU0,-0.9675878906250001,-64.713427734375,0.44068359375000005,-2.73109243697479,-118.62745098039217,-6.23249299719888
3.004,IMU0,-0.814306640625,-63.353056640625006,1.2837304687500002,-1.1204481792717087,-123.80952380952381,-6.442577030812325
3.014,IMU0,-0.8622070312500001,-63.161455078125,1.7627343750000002,-2.100840336134454,-129.83193277310926,-6.23249299719888
3.024,IMU0,-0.833466796875,-62.893212890625,1.0154882812500001,-1.9607843137254903,-134.03361344537817,-6.372549019607844
3.034,IMU0,-0.9005273437500001,-62.32798828125,0.12454101562500001,-1.9607843137254903,-139.07563025210084,-6.372549019607844
3.044,IMU0,-1.0346484375,-62.893212890625,1.005908203125,-2.2408963585434174,-139.14565826330534,-6.442577030812325
3.054,IMU0,-0.852626953125,-61.97352539062501,1.9255957031250002,-3.5014005602240896,-146.9187675070028,-6.582633053221289
3.064,IMU0,-0.9771679687500001,-62.615390625,1.0538085937500001,-1.7507002801120448,-149.85994397759103,-7.002801120448179
3.074,IMU0,-0.9675878906250001,-62.72077148437501,0.24908203125000003,2.100840336134454,-152.7310924369748,-7.072829131652662
3.084,IMU0,-1.36037109375,-62.730351562500005,1.044228515625,1.8907563025210086,-160.0140056022409,-7.703081232492997
3.094,IMU0,-1.2933105468750001,-62.529169921875,1.791474609375,0.700280112044818,-163.0952380952381,-8.053221288515406
3.104,IMU0,-1.0346484375,-62.912373046875004,1.1304492187500002,-1.3305322128851542,-166.31652661064427,-7.633053221288516
3.114,IMU0,-0.9196875000000001,-63.218935546875,0.814306640625,0.0700280112044818,-169.04761904761907,-7.773109243697479
3.124,IMU0,-1.4465917968750002,-62.13638671875,1.7627343750000002,-3.2212885154061626,-176.1904761904762,-7.843137254901961
3.134,IMU0,-1.197509765625,-63.24767578125,2.16509765625,-2.3109243697478994,-180.0420168067227,-8.403361344537815
3.144,IMU0,-0.8047265625000001,-62.921953125,1.4561718750000001,-1.8207282913165266,-180.0420168067227,-8.543417366946779
3.154,IMU0,-1.22625,-62.835732421875,1.120869140625,-0.5602240896358543,-184.6638655462185,-8.333333333333334
3.164,IMU0,-1.2549902343750001,-61.55200195312501,1.8489550781250002,-0.42016806722689076,-188.72549019607845,-8.823529411764707
3.174,IMU0,-1.1879296875,-61.877724609375,2.0309765625000002,-1.4705882352941178,-191.73669467787116,-9.173669467787116
3.184,IMU0,-0.9675878906250001,-62.759091796875005,1.312470703125,0.350140056022409,-197.40896358543418,-9.033613445378151
3.194,IMU0,-1.714833984375,-61.322080078125005,1.1304492187500002,-1.400560224089636,-196.42857142857144,-8.683473389355743
3.204,IMU0,-1.8489550781250002,-63.30515625,1.4465917968750002,4.061624649859944,-203.57142857142858,-9.523809523809524
3.214,IMU0,-1.082548828125,-62.29924804687501,1.7339941406250001,-1.9607843137254903,-208.68347338935575,-10.364145658263306
3.224,IMU0,-0.7280859375000001,-62.423789062500006,1.389111328125,-5.2521008403361344,-210.7843137254902,-9.873949579831933
3.234,IMU0,-1.85853515625,-62.59623046875,1.619033203125,-0.6302521008403361,-211.55462184873952,-8.96358543417367
3.244,IMU0,-1.59029296875,-61.21669921875,1.9255957031250002,-4.061624649859944,-215.12605042016807,-9.593837535014005
3.254,IMU0,-1.005908203125,-61.226279296875006,1.7339941406250001,-1.4705882352941178,-221.07843137254903,-10.364145658263306
3.264,IMU0,-0.689765625,-61.245439453125,1.427431640625,0.9103641456582633,-220.65826330532215,-10.294117647058824
3.274,IMU0,-1.465751953125,-61.609482421875,1.714833984375,0.4901960784313726,-225.49019607843138,-9.873949579831933
3.284,IMU0,-1.39869140625,-62.53875000000001,2.7207421875,-2.030812324929972,-227.52100840336135,-10.294117647058824
3.294,IMU0,-0.7280859375000001,-61.887304687500006,2.35669921875,-0.4901960784313726,-229.2016806722689,-11.064425770308123
3.304,IMU0,-0.59396484375,-62.00226562500001,1.8393750000000002,3.431372549019608,-230.18207282913167,-10.434173669467787
3.314,IMU0,-1.389111328125,-62.471689453125,1.657353515625,1.1904761904761905,-233.26330532212887,-10.014005602240896
3.324,IMU0,-1.312470703125,-62.13638671875,2.6632617187500003,-3.2913165266106446,-241.38655462184875,-11.064425770308123
3.334,IMU0,-0.67060546875,-61.954365234375004,2.3279589843750004,-2.2408963585434174,-243.69747899159665,-11.134453781512606
3.344,IMU0,-1.4465917968750002,-61.130478515625,1.74357421875,-3.641456582633053,-247.54901960784315,-10.434173669467787
3.354,IMU0,-1.906435546875,-64.38770507812501,1.59029296875,-2.3109243697478994,-249.7198879551821,-11.134453781512606
3.364,IMU0,-1.4082714843750002,-61.714863281250004,2.481240234375,-3.5714285714285716,-251.26050420168067,-11.834733893557424
3.374,IMU0,-0.39278320312500004,-61.628642578125,2.634521484375,3.9215686274509807,-248.31932773109244,-11.834733893557424
3.384,IMU0,-1.5615527343750002,-61.408300781250006,1.6956738281250001,0.21008403361344538,-253.78151260504202,-10.714285714285715
3.394,IMU0,-1.89685546875,-63.113554687500006,1.8393750000000002,1.7507002801120448,-252.94117647058826,-10.784313725490197
3.404,IMU0,-0.852626953125,-61.76276367187501,2.557880859375,-1.2605042016806722,-264.07563025210084,-12.745098039215687
3.414,IMU0,-0.076640625,-62.768671875,2.538720703125,1.9607843137254903,-260.92436974789916,-12.114845938375352
3.424,IMU0,-1.36037109375,-61.571162109375,2.6536816406250003,-6.23249299719888,-267.57703081232495,-11.064425770308123
3.434,IMU0,-1.504072265625,-60.37365234375,2.557880859375,-7.633053221288516,-269.88795518207286,-12.184873949579833
3.444,IMU0,-0.6227050781250001,-62.05974609375001,2.366279296875,7.352941176470589,-267.43697478991595,-13.23529411764706
3.454,IMU0,-0.22034179687500002,-61.025097656250004,2.462080078125,2.73109243697479,-271.7787114845938,-12.53501400560224
3.464,IMU0,-0.910107421875,-62.375888671875,2.8836035156250004,10.504201680672269,-266.6666666666667,-12.184873949579833
3.474,IMU0,-1.6094531250000002,-62.768671875,2.7207421875,-2.3109243697478994,-280.672268907563,-12.394957983193278
3.484,IMU0,-0.9867480468750001,-61.07299804687501,2.3375390625000003,2.5910364145658265,-278.5714285714286,-13.445378151260504
3.494,IMU0,-0.354462890625,-61.992685546875,2.6632617187500003,5.46218487394958,-276.9607843137255,-13.865546218487395
3.504,IMU0,-1.36037109375,-61.79150390625001,3.0464648437500004,3.641456582633053,-279.13165266106444,-12.88515406162465
3.514,IMU0,-1.9160156250000002,-60.440712890625,2.9123437500000002,4.201680672268908,-278.5014005602241,-13.23529411764706
3.524,IMU0,-1.4178515625,-61.28375976562501,2.519560546875,6.932773109243698,-279.83193277310926,-14.84593837535014
3.534,IMU0,-0.67060546875,-61.446621093750004,2.366279296875,-4.341736694677872,-288.30532212885157,-14.495798319327731
3.544,IMU0,-1.0538085937500001,-61.187958984375,2.93150390625,0.7703081232492998,-286.41456582633054,-14.005602240896359
3.554,IMU0,-1.7627343750000002,-62.548330078125005,2.9889843750000002,7.983193277310924,-281.5826330532213,-14.495798319327731
3.564,IMU0,-1.0346484375,-61.465781250000006,2.596201171875,5.042016806722689,-289.5658263305322,-15.406162464985995
3.574,IMU0,-0.20118164062500002,-60.85265625,2.62494140625,1.050420168067227,-289.9859943977591,-15.616246498599441
3.584,IMU0,-0.9580078125000001,-61.647802734375006,2.845283203125,0.2801120448179272,-288.02521008403363,-14.075630252100842
3.594,IMU0,-1.51365234375,-61.10173828125001,3.1805859375,-4.131652661064426,-294.327731092437,-14.985994397759104
3.604,IMU0,-1.140029296875,-61.0059375,2.7303222656250004,-8.263305322128852,-299.85994397759106,-15.756302521008404
3.614,IMU0,-0.47900390625000006,-62.260927734375,2.366279296875,-0.5602240896358543,-296.49859943977594,-16.31652661064426
3.624,IMU0,-0.8047265625000001,-61.705283203125006,3.036884765625,-0.9803921568627452,-293.62745098039215,-15.826330532212886
3.634,IMU0,-1.465751953125,-61.504101562500004,3.1805859375,-6.862745098039216,-306.2324929971989,-15.616246498599441
3.644,IMU0,-1.4944921875000001,-60.661054687500005,2.93150390625,1.8907563025210086,-298.249299719888,-16.666666666666668
3.654,IMU0,-0.5652246093750001,-61.140058593750005,2.787802734375,-0.42016806722689076,-300.140056022409,-17.366946778711487
3.664,IMU0,-0.63228515625,-60.79517578125,3.036884765625,-0.9103641456582633,-301.8207282913165,-16.73669467787115
3.674,IMU0,-1.350791015625,-60.53651367187501,3.9469921875000002,-8.473389355742297,-310.0840336134454,-16.666666666666668
3.684,IMU0,-1.4465917968750002,-60.823916015625,3.6883300781250004,-6.512605042016807,-308.2633053221289,-17.15686274509804
3.694,IMU0,-1.0538085937500001,-60.603574218750005,2.404599609375,-6.23249299719888,-309.3137254901961,-17.717086834733895
3.704,IMU0,-0.67060546875,-60.488613281250004,2.8165429687500003,-8.753501400560225,-310.4341736694678,-17.57703081232493
3.714,IMU0,-1.0154882812500001,-61.264599609375004,4.13859375,1.9607843137254903,-304.6918767507003,-17.717086834733895
3.724,IMU0,-0.795146484375,-62.634550781250006,3.650009765625,-8.403361344537815,-313.09523809523813,-18.347338935574232
3.734,IMU0,-0.737666015625,-60.469453125,2.6441015625000004,-5.2521008403361344,-307.21288515406167,-17.787114845938376
3.744,IMU0,-1.1304492187500002,-61.111318359375005,2.62494140625,4.201680672268908,-300.4901960784314,-18.067226890756302
3.754,IMU0,-1.149609375,-61.28375976562501,4.15775390625,-3.2913165266106446,-303.8515406162465,-18.137254901960784
3.764,IMU0,-1.0154882812500001,-61.992685546875,4.129013671875001,-5.042016806722689,-303.3613445378151,-18.417366946778714
3.774,IMU0,-1.0346484375,-61.28375976562501,2.8069628906250004,2.3109243697478994,-302.59103641456585,-18.837535014005603
3.784,IMU0,-0.929267578125,-59.57850585937501,3.3338671875,0.6302521008403361,-307.98319327731093,-19.537815126050422
3.794,IMU0,-0.9388476562500001,-60.0479296875,4.11943359375,-1.8907563025210086,-314.77591036414566,-19.257703081232496
3.804,IMU0,-1.0154882812500001,-60.5844140625,3.8320312500000004,-7.563025210084034,-318.4173669467787,-19.18767507002801
3.814,IMU0,-1.274150390625,-60.670634765625,3.3626074218750004,-7.212885154061625,-315.96638655462186,-19.747899159663866
3.824,IMU0,-0.7855664062500001,-61.52326171875001,3.573369140625,-6.582633053221289,-314.0056022408964,-19.39775910364146
3.834,IMU0,-0.67060546875,-60.277851562500004,4.4547363281250005,1.1904761904761905,-310.29411764705884,-19.46778711484594
3.844,IMU0,-0.814306640625,-60.670634765625,3.803291015625,-7.352941176470589,-313.515406162465,-19.817927170868348
3.854,IMU0,-1.3412109375,-60.91013671875,2.77822265625,0,-310.5742296918768,-19.95798319327731
3.864,IMU0,-0.814306640625,-60.08625000000001,3.6116894531250003,4.061624649859944,-312.95518207282913,-20.58823529411765
3.874,IMU0,-0.756826171875,-60.08625000000001,4.27271484375,4.061624649859944,-312.95518207282913,-20.58823529411765
3.884,IMU0,-0.756826171875,-60.938876953125,4.27271484375,5.182072829131653,-305.672268907563,-20.028011204481793
3.894,IMU0,-1.1687695312500002,-61.360400390625,3.266806640625,-6.652661064425771,-319.5378151260504,-20.168067226890756
3.904,IMU0,-1.1879296875,-60.498193359375,3.4488281250000004,-8.61344537815126,-321.7787114845938,-20.938375350140056
3.914,IMU0,-0.910107421875,-60.05750976562501,3.7649707031250004,-6.722689075630252,-318.1372549019608,-20.938375350140056
3.924,IMU0,-0.9771679687500001,-60.153310546875005,3.7074902343750002,-9.243697478991598,-326.1204481792717,-21.568627450980394
3.934,IMU0,-1.082548828125,-59.93296875,3.96615234375,0.2801120448179272,-318.4173669467787,-21.288515406162468
3.944,IMU0,-1.2070898437500002,-60.613154296875,3.58294921875,-1.3305322128851542,-313.8655462184874,-21.77871148459384
3.954,IMU0,-0.6227050781250001,-60.421552734375005,3.803291015625,-4.831932773109244,-317.50700280112045,-22.198879551820728
3.964,IMU0,-0.795146484375,-59.5114453125,4.033212890625,-8.543417366946779,-324.85994397759106,-22.61904761904762
3.974,IMU0,-1.3412109375,-60.038349609375004,4.052373046875,-3.991596638655462,-316.9467787114846,-21.708683473389357
3.984,IMU0,-1.101708984375,-59.42522460937501,3.7841308593750003,-11.834733893557424,-325.28011204481794,-23.459383753501402
3.994,IMU0,-0.21076171875000002,-60.009609375000004,3.3817675781250003,-8.333333333333334,-322.4089635854342,-23.669467787114847
4.004,IMU0,-0.5748046875,-59.224042968750005,3.956572265625,-7.002801120448179,-319.6778711484594,-22.759103641456583
4.014,IMU0,-1.6860937500000002,-59.57850585937501,3.9853125000000005,-9.593837535014005,-326.2605042016807,-23.10924369747899
4.024,IMU0,-1.312470703125,-59.865908203125,3.9374121093750003,-10.784313725490197,-329.20168067226894,-23.949579831932773
4.034,IMU0,-0.335302734375,-60.14373046875001,3.6404296875,-2.6610644257703084,-324.4397759103642,-23.87955182072829
4.044,IMU0,-0.6610253906250001,-60.402392578125,4.0236328125,-11.134453781512606,-326.8207282913165,-22.408963585434176
4.054,IMU0,-1.619033203125,-59.68388671875,4.378095703125,-4.831932773109244,-321.218487394958,-22.408963585434176
4.064,IMU0,-0.8238867187500001,-59.26236328125,4.5409570312500005,-3.151260504201681,-314.5658263305322,-23.669467787114847
4.074,IMU0,0.15328125,-60.019189453125,3.9469921875000002,-8.473389355742297,-319.6778711484594,-23.31932773109244
4.084,IMU0,-0.8813671875000001,-60.172470703125,4.11943359375,1.5406162464985995,-330.39215686274514,-23.599439775910366
4.094,IMU0,-1.791474609375,-59.84674804687501,4.569697265625,-0.21008403361344538,-324.2997198879552,-23.249299719887958
4.104,IMU0,-1.005908203125,-59.195302734375005,4.00447265625,-10.504201680672269,-332.56302521008405,-24.789915966386555
4.114,IMU0,0.36404296875000003,-58.936640625,4.0619531250000005,-6.442577030812325,-329.20168067226894,-25.35014005602241
4.124,IMU0,-0.536484375,-58.40015625,4.44515625,-4.621848739495799,-328.9915966386555,-23.599439775910366
4.134,IMU0,-2.12677734375,-59.3581640625,4.742138671875001,-13.515406162464986,-331.7226890756303,-23.38935574229692
4.144,IMU0,-1.2645703125,-59.7413671875,4.1481738281250005,-12.53501400560224,-327.52100840336135,-25.70028011204482
4.154,IMU0,0.22992187500000003,-59.7413671875,3.50630859375,-5.8123249299719895,-330.1120448179272,-26.260504201680675
4.164,IMU0,-0.9005273437500001,-58.831259765625006,4.6367578125,-6.932773109243698,-322.2689075630252,-23.80952380952381
4.174,IMU0,-1.5328125000000001,-59.12824218750001,5.240302734375001,1.1204481792717087,-317.50700280112045,-24.299719887955185
4.184,IMU0,-1.3699511718750002,-58.91748046875001,4.243974609375,2.5210084033613445,-322.05882352941177,-25.28011204481793
4.194,IMU0,-0.6610253906250001,-59.26236328125,3.6691699218750005,-9.663865546218489,-330.4621848739496,-26.820728291316527
4.204,IMU0,-0.28740234375,-59.137822265625005,5.355263671875,4.551820728291316,-325.0700280112045,-25.70028011204482
4.214,IMU0,-1.6956738281250001,-59.39648437500001,5.57560546875,1.8207282913165266,-326.9607843137255,-24.719887955182074
4.224,IMU0,-1.70525390625,-59.750947265625,4.090693359375,-1.8907563025210086,-337.53501400560225,-25.910364145658264
4.234,IMU0,-0.699345703125,-57.53794921875,4.11943359375,0.4901960784313726,-331.02240896358546,-26.47058823529412
4.244,IMU0,-0.39278320312500004,-58.534277343750006,5.566025390625001,8.753501400560225,-325.4201680672269,-25.7703081232493
4.254,IMU0,-0.9963281250000001,-59.281523437500006,5.680986328125,0.350140056022409,-339.4257703081233,-25.420168067226893
4.264,IMU0,-1.8393750000000002,-59.8946484375,3.6979101562500003,-4.761904761904762,-331.44257703081234,-25.210084033613448
4.274,IMU0,-1.3699511718750002,-57.911572265625004,3.822451171875,-7.002801120448179,-339.4957983193277,-25.420168067226893
4.284,IMU0,-0.5460644531250001,-57.940312500000005,5.786367187500001,-10.504201680672269,-353.01120448179273,-26.750700280112046
4.294,IMU0,-0.7472460937500001,-58.1319140625,5.53728515625,-10.224089635854343,-347.8291316526611,-25.490196078431374
4.304,IMU0,-1.6094531250000002,-58.543857421875,4.339775390625,-6.512605042016807,-352.3809523809524,-25.70028011204482
4.314,IMU0,-1.120869140625,-58.103173828125,4.550537109375,-4.69187675070028,-341.8067226890756,-26.47058823529412
4.324,IMU0,-0.6418652343750001,-58.6683984375,5.853427734375001,-8.753501400560225,-359.24369747899163,-26.610644257703083
4.334,IMU0,-0.699345703125,-58.40015625,5.594765625,-9.243697478991598,-362.95518207282913,-26.050420168067227
4.344,IMU0,-1.7339941406250001,-58.256455078125,4.847519531250001,-15.126050420168069,-365.0560224089636,-25.70028011204482
4.354,IMU0,-1.149609375,-58.67797851562501,5.182822265625,-15.966386554621849,-371.1484593837535,-27.3109243697479
4.364,IMU0,0.047900390625000004,-58.323515625000006,5.613925781250001,-1.6106442577030813,-361.06442577030816,-27.591036414565828
4.374,IMU0,-0.814306640625,-58.563017578125006,5.786367187500001,8.053221288515406,-363.65546218487395,-26.400560224089638
4.384,IMU0,-2.069296875,-58.534277343750006,5.0199609375000005,-1.2605042016806722,-362.7450980392157,-26.260504201680675
4.394,IMU0,-0.9675878906250001,-58.70671875000001,5.201982421875,-2.380952380952381,-367.08683473389357,-27.801120448179272
4.404,IMU0,-0.19160156250000002,-57.80619140625,5.240302734375001,-2.3109243697478994,-369.18767507002804,-28.36134453781513
4.414,IMU0,-0.775986328125,-58.179814453125005,5.834267578125,-7.072829131652662,-369.467787114846,-26.400560224089638
4.424,IMU0,-1.714833984375,-57.949892578125,5.518125,-15.19607843137255,-390.546218487395,-26.400560224089638
4.434,IMU0,-1.6381933593750002,-57.34634765625,4.96248046875,-7.072829131652662,-388.02521008403363,-27.941176470588236
4.444,IMU0,-0.39278320312500004,-57.5954296875,5.125341796875,5.882352941176471,-372.61904761904765,-28.991596638655462
4.454,IMU0,-0.67060546875,-58.093593750000004,5.8630078125,-2.6610644257703084,-384.5238095238095,-28.711484593837536
4.464,IMU0,-1.9734960937500001,-57.461308593750005,5.374423828125001,3.5014005602240896,-370.1680672268908,-27.17086834733894
4.474,IMU0,-1.59029296875,-57.854091796875004,5.134921875000001,-2.3109243697478994,-372.8991596638656,-28.291316526610647
4.484,IMU0,-0.17244140625,-57.911572265625004,5.125341796875,-14.635854341736696,-388.72549019607845,-29.69187675070028
4.494,IMU0,0.11496093750000001,-57.65291015625,6.0641894531250005,-12.53501400560224,-392.296918767507,-29.271708683473392
4.504,IMU0,-1.89685546875,-57.739130859375,5.958808593750001,0.7703081232492998,-373.9495798319328,-27.801120448179272
4.514,IMU0,-1.8010546875000002,-56.876923828125,4.876259765625,-0.8403361344537815,-373.59943977591035,-29.761904761904763
4.524,IMU0,0.13412109375,-56.608681640625,4.75171875,1.1904761904761905,-386.2044817927171,-30.32212885154062
4.534,IMU0,-0.009580078125,-57.605009765625006,5.84384765625,-3.781512605042017,-390.0560224089636,-29.69187675070028
4.544,IMU0,-1.9255957031250002,-57.490048828125005,5.8917480468750005,4.971988795518207,-375.28011204481794,-28.571428571428573
4.554,IMU0,-1.465751953125,-57.145166015625,5.19240234375,-9.663865546218489,-388.09523809523813,-30.04201680672269
4.564,IMU0,-0.24908203125000003,-56.790703125,4.876259765625,-2.5910364145658265,-386.6946778711485,-30.672268907563026
4.574,IMU0,-0.277822265625,-57.509208984375,5.748046875,-6.512605042016807,-389.9859943977591,-29.69187675070028
4.584,IMU0,-1.389111328125,-58.208554687500005,6.677314453125001,5.9523809523809526,-387.67507002801125,-29.131652661064425
4.594,IMU0,-1.906435546875,-56.790703125,5.69056640625,-6.512605042016807,-389.4257703081233,-29.971988795518207
4.604,IMU0,-0.833466796875,-57.413408203125,4.722978515625,-0.9803921568627452,-393.4173669467787,-30.532212885154063
4.614,IMU0,-0.59396484375,-56.685322265625004,5.930068359375,-3.011204481792717,-387.11484593837537,-29.831932773109244
4.624,IMU0,-1.82021484375,-58.016953125,6.581513671875,-4.271708683473389,-387.04481792717087,-29.341736694677873
4.634,IMU0,-1.5711328125000001,-57.24096679687501,5.642666015625,-10.994397759103641,-388.09523809523813,-29.831932773109244
4.644,IMU0,-0.756826171875,-57.154746093750006,4.914580078125001,-3.2212885154061626,-396.5686274509804,-30.88235294117647
4.654,IMU0,-0.46942382812500005,-57.298447265625,5.767207031250001,-3.2212885154061626,-396.5686274509804,-30.3921568627451
4.664,IMU0,-1.1304492187500002,-56.512880859375,6.332431640625001,2.380952380952381,-386.9047619047619,-28.92156862745098
4.674,IMU0,-1.51365234375,-57.576269531250006,6.006708984375001,-9.663865546218489,-394.0476190476191,-29.131652661064425
4.684,IMU0,-1.120869140625,-56.560781250000005,5.288203125000001,-7.983193277310924,-397.47899159663865,-29.831932773109244
4.694,IMU0,-0.39278320312500004,-56.12009765625,5.700146484375001,-9.803921568627452,-399.0196078431373,-30.11204481792717
4.704,IMU0,-0.8622070312500001,-56.647001953125006,6.389912109375,-6.722689075630252,-390.96638655462186,-28.641456582633054
4.714,IMU0,-1.85853515625,-56.97272460937501,5.872587890625001,-2.9411764705882355,-394.5378151260504,-28.36134453781513
4.724,IMU0,-1.025068359375,-56.081777343750005,5.67140625,9.453781512605042,-390.1260504201681,-30.3921568627451
4.734,IMU0,-0.5077441406250001,-56.570361328125,6.102509765625,1.3305322128851542,-398.59943977591035,-29.901960784313726
4.744,IMU0,-0.6418652343750001,-57.42298828125001,6.38033203125,1.680672268907563,-396.9187675070028,-28.571428571428573
4.754,IMU0,-1.676513671875,-57.557109375,6.102509765625,-9.313725490196079,-400.4201680672269,-28.221288515406165
4.764,IMU0,-1.6381933593750002,-56.52246093750001,5.88216796875,-1.2605042016806722,-392.7871148459384,-29.411764705882355
4.774,IMU0,-0.5460644531250001,-57.00146484375001,6.03544921875,0.0700280112044818,-390.1260504201681,-30.11204481792717
4.784,IMU0,-0.48858398437500006,-56.340439453125,6.3036914062500005,0.1400560224089636,-402.8711484593838,-28.641456582633054
4.794,IMU0,-1.78189453125,-56.73322265625001,5.84384765625,-0.350140056022409,-390.1260504201681,-27.380952380952383
4.804,IMU0,-1.504072265625,-56.618261718750006,5.901328125,-1.3305322128851542,-386.2745098039216,-29.271708683473392
4.814,IMU0,-0.162861328125,-57.336767578125006,6.025869140625001,-4.411764705882353,-397.05882352941177,-29.831932773109244
4.824,IMU0,-0.7472460937500001,-55.50697265625001,5.901328125,-4.271708683473389,-398.59943977591035,-28.0812324929972
4.834,IMU0,-1.9734960937500001,-56.97272460937501,6.15041015625,-4.621848739495799,-398.03921568627453,-28.641456582633054
4.844,IMU0,-1.43701171875,-56.924824218750004,5.987548828125,-6.442577030812325,-397.05882352941177,-29.551820728291318
4.854,IMU0,0.143701171875,-56.053037109375005,5.88216796875,-0.700280112044818,-396.07843137254906,-30.532212885154063
4.864,IMU0,-0.795146484375,-56.330859375,6.15041015625,-3.641456582633053,-396.218487394958,-29.271708683473392
4.874,IMU0,-2.3279589843750004,-56.532041015625005,6.112089843750001,-3.9215686274509807,-400.7002801120448,-29.761904761904763
4.884,IMU0,-1.5711328125000001,-56.206318359375004,6.045029296875001,-13.305322128851541,-400.35014005602244,-30.252100840336137
4.894,IMU0,-0.43110351562500004,-55.813535156250005,5.767207031250001,-8.683473389355743,-386.41456582633054,-30.81232492997199
4.904,IMU0,-0.354462890625,-55.411171875,5.99712890625,0.350140056022409,-385.29411764705884,-29.69187675070028
4.914,IMU0,-1.36037109375,-55.64109375,6.2174707031250005,-0.2801120448179272,-391.03641456582636,-28.711484593837536
4.924,IMU0,-1.0154882812500001,-55.98597656250001,5.872587890625001,-9.523809523809524,-391.9467787114846,-30.182072829131656
4.934,IMU0,-0.689765625,-55.574033203125005,5.3456835937500005,0.700280112044818,-377.8711484593838,-29.481792717086837
4.944,IMU0,-0.42152343750000004,-55.861435546875,6.0641894531250005,13.58543417366947,-368.06722689075633,-28.641456582633054
4.954,IMU0,-1.350791015625,-56.46498046875001,6.658154296875001,3.431372549019608,-387.60504201680675,-29.20168067226891
4.964,IMU0,-1.7627343750000002,-56.321279296875005,5.623505859375,-13.515406162464986,-396.42857142857144,-29.131652661064425
4.974,IMU0,-0.8622070312500001,-55.20041015625,5.07744140625,3.5014005602240896,-386.8347338935574,-29.6218487394958
4.984,IMU0,-0.536484375,-56.455400390625,6.514453125,-3.361344537815126,-379.6918767507003,-29.061624649859944
4.994,IMU0,-1.312470703125,-55.8326953125,6.945556640625001,9.313725490196079,-366.45658263305324,-27.591036414565828
5.004,IMU0,-1.3699511718750002,-56.15841796875,5.11576171875,5.392156862745098,-379.27170868347343,-28.50140056022409
5.014,IMU0,-0.23950195312500003,-55.74647460937501,5.470224609375,-7.843137254901961,-385.7142857142857,-28.151260504201684
5.024,IMU0,-0.795146484375,-55.123769531250005,6.4569726562500005,-6.23249299719888,-375.35014005602244,-27.380952380952383
5.034,IMU0,-1.5711328125000001,-55.123769531250005,6.112089843750001,-6.23249299719888,-375.35014005602244,-27.380952380952383
5.044,IMU0,-1.5711328125000001,-55.286630859375,6.112089843750001,4.411764705882353,-369.9579831932773,-26.400560224089638
5.054,IMU0,-1.4944921875000001,-55.420751953125006,5.518125,-10.644257703081234,-386.2044817927171,-27.73109243697479
5.064,IMU0,-0.910107421875,-56.187158203125,5.795947265625,-1.050420168067227,-373.80952380952385,-28.221288515406165
5.074,IMU0,-0.162861328125,-55.018388671875,6.49529296875,1.5406162464985995,-371.5686274509804,-26.47058823529412
5.084,IMU0,-1.9255957031250002,-55.439912109375,5.508544921875,0.6302521008403361,-372.12885154061627,-25
5.094,IMU0,-2.39501953125,-55.152509765625005,4.7133984375,-5.46218487394958,-374.3697478991597,-26.330532212885156
5.104,IMU0,-0.45026367187500005,-55.669833984375,6.102509765625,-2.100840336134454,-380.0420168067227,-27.24089635854342
5.114,IMU0,-0.5269042968750001,-55.9093359375,6.447392578125,-14.075630252100842,-376.6806722689076,-24.92997198879552
5.124,IMU0,-2.155517578125,-55.286630859375,6.006708984375001,5.392156862745098,-357.21288515406167,-23.599439775910366
5.134,IMU0,-2.31837890625,-55.574033203125005,5.221142578125001,2.380952380952381,-361.41456582633054,-25.7703081232493
5.144,IMU0,-0.5652246093750001,-55.497392578125,5.297783203125,-9.523809523809524,-376.6806722689076,-25.28011204481793
5.154,IMU0,-0.277822265625,-55.899755859375006,6.437812500000001,-2.3109243697478994,-363.65546218487395,-24.50980392156863
5.164,IMU0,-1.676513671875,-55.669833984375,6.524033203125001,-5.602240896358544,-361.34453781512605,-22.689075630252102
5.174,IMU0,-2.5004003906250003,-54.692666015625,5.4127441406250005,-0.5602240896358543,-350.7002801120448,-22.899159663865547
5.184,IMU0,-0.5077441406250001,-55.545292968750005,5.700146484375001,-4.411764705882353,-352.7310924369748,-24.299719887955185
5.194,IMU0,-0.23950195312500003,-55.449492187500006,6.15041015625,2.73109243697479,-344.5378151260504,-22.54901960784314
5.204,IMU0,-2.002236328125,-55.411171875,5.72888671875,14.84593837535014,-338.4453781512605,-20.58823529411765
5.214,IMU0,-2.0213964843750003,-55.248310546875004,5.546865234375001,2.5910364145658265,-341.31652661064425,-21.568627450980394
5.224,IMU0,-0.6514453125,-54.481904296875,4.92416015625,7.703081232492997,-342.57703081232495,-23.249299719887958
5.234,IMU0,-0.22992187500000003,-55.554873046875,5.125341796875,1.400560224089636,-343.1372549019608,-21.568627450980394
5.244,IMU0,-1.8106347656250001,-54.759726562500006,5.700146484375001,13.515406162464986,-331.51260504201684,-20.098039215686274
5.254,IMU0,-2.0980371093750003,-55.449492187500006,5.355263671875,-12.324929971988796,-340.406162464986,-20.868347338935575
5.264,IMU0,-0.5077441406250001,-53.907099609375,4.895419921875001,5.5322128851540615,-323.59943977591035,-22.128851540616246
5.274,IMU0,-0.44068359375000005,-54.223242187500006,5.661826171875,-3.151260504201681,-326.9607843137255,-21.07843137254902
5.284,IMU0,-1.43701171875,-55.976396484375,5.99712890625,4.971988795518207,-318.9775910364146,-19.327731092436977
5.294,IMU0,-2.47166015625,-55.16208984375,4.895419921875001,5.2521008403361344,-326.05042016806726,-19.39775910364146
5.304,IMU0,-0.929267578125,-54.481904296875,4.7804589843750005,-8.053221288515406,-325.91036414565826,-20.028011204481793
5.314,IMU0,-0.047900390625000004,-55.209990234375006,5.4989648437500005,-1.050420168067227,-317.2268907563025,-19.747899159663866
5.324,IMU0,-1.465751953125,-54.520224609375006,5.566025390625001,-4.551820728291316,-330.1120448179272,-17.717086834733895
5.334,IMU0,-1.8393750000000002,-54.328623046875,4.493056640625,9.593837535014005,-308.2633053221289,-18.27731092436975
5.344,IMU0,-1.178349609375,-55.095029296875005,4.397255859375,-4.201680672268908,-316.7366946778712,-19.537815126050422
5.354,IMU0,-0.44068359375000005,-54.271142578125,4.914580078125001,2.100840336134454,-315.33613445378154,-18.907563025210084
5.364,IMU0,-1.55197265625,-53.782558593750004,5.336103515625,-5.882352941176471,-310.92436974789916,-16.73669467787115
5.374,IMU0,-1.9543359375000002,-54.89384765625,4.5601171875,-4.131652661064426,-310.1540616246499,-17.43697478991597
5.384,IMU0,-0.7280859375000001,-54.280722656250006,4.2535546875,-9.033613445378151,-306.2324929971989,-17.787114845938376
5.394,IMU0,-0.143701171875,-53.772978515625006,4.96248046875,13.515406162464986,-267.08683473389357,-15.896358543417367
5.404,IMU0,-1.70525390625,-54.635185546875,5.470224609375,14.84593837535014,-259.03361344537814,-14.495798319327731
5.414,IMU0,-1.9926562500000002,-54.271142578125,4.7900390625,-5.322128851540617,-291.9467787114846,-15.056022408963585
5.424,IMU0,-0.613125,-53.638857421875,4.243974609375,-3.781512605042017,-285.99439775910366,-15.616246498599441
5.434,IMU0,-0.613125,-55.392011718750005,4.665498046875,-2.2408963585434174,-285.1540616246499,-14.635854341736696
5.444,IMU0,-1.312470703125,-53.85919921875001,4.88583984375,-1.2605042016806722,-285.0140056022409,-13.445378151260504
5.454,IMU0,-1.005908203125,-54.424423828125,4.5984375,-5.322128851540617,-276.8207282913165,-13.515406162464986
5.464,IMU0,-0.162861328125,-54.12744140625,4.512216796875,-5.6722689075630255,-276.1904761904762,-13.375350140056023
5.474,IMU0,-0.737666015625,-53.322714843750006,4.675078125000001,10.92436974789916,-275.4901960784314,-12.184873949579833
5.484,IMU0,-1.274150390625,-53.293974609375006,4.77087890625,-8.263305322128852,-277.8011204481793,-11.414565826330533
5.494,IMU0,-0.8430468750000001,-53.341875,4.473896484375,0.700280112044818,-257.4229691876751,-10.994397759103641
5.504,IMU0,-0.067060546875,-54.443583984375,4.11943359375,-5.6722689075630255,-262.7450980392157,-10.644257703081234
5.514,IMU0,-0.6514453125,-54.156181640625,4.991220703125,0.0700280112044818,-272.6890756302521,-9.803921568627452
5.524,IMU0,-0.910107421875,-52.9203515625,4.5984375,7.352941176470589,-261.2745098039216,-8.96358543417367
5.534,IMU0,-0.5077441406250001,-53.562216796875006,4.3876757812500005,-1.1904761904761905,-255.18207282913167,-10.154061624649861
5.544,IMU0,-0.49816406250000006,-53.983740234375006,4.2152343750000005,1.6106442577030813,-249.6498599439776,-8.893557422969188
5.554,IMU0,-1.0921289062500001,-53.533476562500006,4.473896484375,7.843137254901961,-236.27450980392157,-8.823529411764707
5.564,IMU0,-0.6035449218750001,-53.006572265625,4.799619140625,-7.773109243697479,-242.3669467787115,-8.403361344537815
5.574,IMU0,-0.0383203125,-53.725078125,4.27271484375,2.170868347338936,-241.80672268907563,-8.263305322128852
5.584,IMU0,-0.5269042968750001,-53.868779296875005,4.042792968750001,1.1204481792717087,-243.69747899159665,-8.19327731092437
5.594,IMU0,-0.8622070312500001,-53.274814453125,5.134921875000001,2.030812324929972,-238.79551820728292,-7.142857142857143
5.604,IMU0,-0.51732421875,-53.341875,4.57927734375,10.92436974789916,-223.24929971988797,-8.123249299719888
5.614,IMU0,0.536484375,-52.067724609375006,3.6116894531250003,-2.6610644257703084,-231.72268907563026,-8.473389355742297
5.624,IMU0,-0.028740234375000003,-54.20408203125,3.822451171875,-11.904761904761905,-243.76750700280112,-6.862745098039216
5.634,IMU0,-0.7855664062500001,-53.734658203125,4.742138671875001,-2.8711484593837535,-235.4341736694678,-6.582633053221289
5.644,IMU0,-0.51732421875,-51.828222656250006,4.914580078125001,4.061624649859944,-227.03081232492997,-7.282913165266106
5.654,IMU0,-0.12454101562500001,-52.7670703125,3.3626074218750004,6.022408963585434,-210.0840336134454,-8.053221288515406
5.664,IMU0,-0.44068359375000005,-52.728750000000005,3.3626074218750004,-6.582633053221289,-229.2717086834734,-7.492997198879552
5.674,IMU0,0.057480468750000006,-52.18268554687501,4.722978515625,-4.551820728291316,-206.72268907563026,-6.722689075630252
5.684,IMU0,-0.067060546875,-53.179013671875005,3.726650390625,-5.46218487394958,-209.10364145658264,-7.42296918767507
5.694,IMU0,0.20118164062500002,-53.274814453125,3.3051269531250003,4.621848739495799,-204.13165266106444,-7.282913165266106
5.704,IMU0,0.41194335937500004,-52.642529296875004,4.15775390625,-2.100840336134454,-205.95238095238096,-7.352941176470589
5.714,IMU0,-0.28740234375,-52.882031250000004,4.6271777343750005,6.022408963585434,-187.60504201680672,-5.602240896358544
5.724,IMU0,0.3065625,-52.450927734375,4.1769140625,2.3109243697478994,-189.56582633053222,-7.773109243697479
5.734,IMU0,0.6610253906250001,-52.0006640625,3.496728515625,-1.4705882352941178,-197.12885154061627,-7.352941176470589
5.744,IMU0,-0.067060546875,-52.9203515625,4.071533203125,-15.686274509803923,-210.29411764705884,-7.773109243697479
5.754,IMU0,-0.13412109375,-52.374287109375004,4.4834765625,-7.773109243697479,-198.8795518207283,-7.352941176470589
5.764,IMU0,0.536484375,-52.728750000000005,4.15775390625,-8.19327731092437,-185.22408963585434,-7.773109243697479
5.774,IMU0,0.67060546875,-52.0773046875,3.3913476562500002,-22.058823529411764,-181.44257703081234,-7.773109243697479
5.784,IMU0,0.01916015625,-51.013916015625,4.090693359375,-1.1904761904761905,-164.6358543417367,-6.722689075630252
5.794,IMU0,-0.17244140625,-52.038984375000005,4.493056640625,21.35854341736695,-140.96638655462186,-7.42296918767507
5.804,IMU0,0.59396484375,-51.876123046875,4.090693359375,6.582633053221289,-148.80952380952382,-8.053221288515406
5.814,IMU0,0.6610253906250001,-51.22467773437501,3.1231054687500004,-3.991596638655462,-166.87675070028013,-8.753501400560225
5.824,IMU0,0.086220703125,-51.387539062500004,4.358935546875,4.621848739495799,-152.52100840336135,-6.442577030812325
5.834,IMU0,-0.028740234375000003,-52.221005859375005,4.282294921875001,-11.69467787114846,-148.73949579831933,-5.5322128851540615
5.844,IMU0,0.354462890625,-51.550400390625,4.0236328125,-18.69747899159664,-146.42857142857144,-6.792717086834735
5.854,IMU0,0.316142578125,-52.719169921875,4.0619531250000005,-5.5322128851540615,-129.83193277310926,-6.442577030812325
5.864,IMU0,0.38320312500000003,-51.502500000000005,4.493056640625,3.081232492997199,-131.9327731092437,-6.932773109243698
5.874,IMU0,-0.057480468750000006,-50.515751953125005,4.1769140625,-12.605042016806724,-145.16806722689077,-7.072829131652662
5.884,IMU0,0.12454101562500001,-50.83189453125,3.6212695312500003,-18.347338935574232,-133.75350140056022,-7.142857142857143
5.894,IMU0,0.8622070312500001,-50.8510546875,4.224814453125,13.165266106442578,-117.85714285714286,-7.983193277310924
5.904,IMU0,0.17244140625,-51.46417968750001,4.5409570312500005,7.072829131652662,-120.7983193277311,-7.633053221288516
5.914,IMU0,0.354462890625,-50.71693359375001,4.4068359375,9.803921568627452,-99.36974789915966,-6.652661064425771
5.924,IMU0,-0.009580078125,-49.596064453125,3.247646484375,-6.372549019607844,-112.74509803921569,-5.602240896358544
5.934,IMU0,-0.162861328125,-50.994755859375005,3.9086718750000005,1.8207282913165266,-120.09803921568628,-7.002801120448179
5.944,IMU0,0.536484375,-49.471523437500004,4.665498046875,-3.641456582633053,-115.61624649859945,-6.022408963585434
5.954,IMU0,0.9580078125000001,-50.487011718750004,3.8607714843750003,7.42296918767507,-105.18207282913166,-5.602240896358544
5.964,IMU0,-0.20118164062500002,-50.37205078125,3.96615234375,14.355742296918768,-88.23529411764706,-4.341736694677872
5.974,IMU0,0.067060546875,-50.25708984375,4.6942382812500005,-5.46218487394958,-108.40336134453781,-4.271708683473389
5.984,IMU0,0.51732421875,-50.534912109375,4.4834765625,-4.69187675070028,-96.70868347338936,-4.831932773109244
5.994,IMU0,0.40236328125000004,-49.5481640625,4.378095703125,3.081232492997199,-80.46218487394958,-3.781512605042017
6.004,IMU0,0.36404296875000003,-50.14212890625,4.3301953125,25.28011204481793,-50.7703081232493,-3.991596638655462
6.014,IMU0,0.42152343750000004,-49.7780859375,4.742138671875001,-2.5910364145658265,-76.9607843137255,-3.781512605042017
6.024,IMU0,0.45984375000000005,-50.73609375,4.655917968750001,-6.372549019607844,-67.57703081232494,-2.801120448179272
6.034,IMU0,0.18202148437500001,-50.247509765625004,4.73255859375,6.022408963585434,-63.445378151260506,-2.6610644257703084
6.044,IMU0,-0.20118164062500002,-50.304990234375005,3.7841308593750003,11.344537815126051,-66.24649859943978,-2.8711484593837535
6.054,IMU0,0.5077441406250001,-49.768505859375004,4.042792968750001,-15.616246498599441,-89.00560224089637,-2.5910364145658265
6.064,IMU0,0.8813671875000001,-50.362470703125005,4.6942382812500005,10.784313725490197,-77.87114845938376,-3.2212885154061626
6.074,IMU0,0.10538085937500001,-49.29908203125,4.358935546875,20.238095238095237,-51.19047619047619,-3.011204481792717
6.084,IMU0,0.44068359375000005,-49.126640625,3.2189062500000003,-6.0924369747899165,-75.35014005602241,-2.5910364145658265
6.094,IMU0,0.9005273437500001,-49.423623046875,3.956572265625,-1.050420168067227,-66.80672268907563,-3.2212885154061626
6.104,IMU0,0.22034179687500002,-49.3565625,4.761298828125001,-21.77871148459384,-71.21848739495799,-2.100840336134454
6.114,IMU0,0.15328125,-49.634384765625,4.042792968750001,-4.061624649859944,-63.72549019607843,-2.380952380952381
6.124,IMU0,0.814306640625,-48.570996093750004,3.2284863281250002,11.344537815126051,-34.103641456582636,-2.100840336134454
6.134,IMU0,0.316142578125,-49.222441406250006,4.61759765625,2.801120448179272,-25.28011204481793,-0.9803921568627452
6.144,IMU0,0.6610253906250001,-49.471523437500004,4.905,-7.212885154061625,-38.58543417366947,-1.4705882352941178
6.154,IMU0,0.536484375,-48.1686328125,3.4584082031250003,-19.047619047619047,-37.39495798319328,-0.1400560224089636
6.164,IMU0,0.45984375000000005,-49.366142578125,3.7841308593750003,-17.857142857142858,-40.68627450980392,-0.6302521008403361
6.174,IMU0,0.536484375,-49.45236328125,5.42232421875,1.680672268907563,-13.65546218487395,-1.7507002801120448
6.184,IMU0,0.67060546875,-48.91587890625,4.368515625000001,0.700280112044818,-24.369747899159666,-0.5602240896358543
6.194,IMU0,0.12454101562500001,-48.91587890625,2.8836035156250004,0.700280112044818,-24.369747899159666,-0.5602240896358543
6.204,IMU0,0.12454101562500001,-48.206953125000005,2.8836035156250004,0.9103641456582633,-27.871148459383754,-0.0700280112044818
6.214,IMU0,0.680185546875,-48.753017578125004,4.129013671875001,-5.8123249299719895,-37.885154061624654,-0.6302521008403361
6.224,IMU0,0.9580078125000001,-48.657216796875005,5.939648437500001,8.823529411764707,-18.207282913165265,-1.2605042016806722
6.234,IMU0,1.0346484375,-47.986611328125,4.243974609375,-7.352941176470589,-23.669467787114847,-0.42016806722689076
6.244,IMU0,-0.11496093750000001,-48.216533203125,2.7303222656250004,0.21008403361344538,-15.19607843137255,-0.21008403361344538
6.254,IMU0,0.6418652343750001,-48.954199218750006,4.761298828125001,5.182072829131653,-4.69187675070028,-0.21008403361344538
6.264,IMU0,1.66693359375,-47.737529296875,6.236630859375,4.411764705882353,-20.448179271708685,0.0700280112044818
6.274,IMU0,0.67060546875,-48.436875,3.2859667968750004,-17.57703081232493,-22.408963585434176,0.9103641456582633
6.284,IMU0,-0.48858398437500006,-47.1723046875,2.0980371093750003,-3.8515406162464987,-10.434173669467787,2.030812324929972
6.294,IMU0,1.07296875,-47.248945312500005,4.895419921875001,-5.112044817927171,-3.011204481792717,-0.4901960784313726
6.304,IMU0,1.7723144531250001,-48.753017578125004,5.546865234375001,-5.6722689075630255,-1.3305322128851542,1.1204481792717087
6.314,IMU0,0.10538085937500001,-46.69330078125,3.3051269531250003,-19.677871148459385,-16.31652661064426,2.801120448179272
6.324,IMU0,-0.46942382812500005,-47.15314453125,3.1518457031250002,-5.602240896358544,-1.4705882352941178,0.350140056022409
6.334,IMU0,1.6477734375000002,-47.823750000000004,5.6522460937500005,12.88515406162465,4.341736694677872,-0.6302521008403361
6.344,IMU0,1.59029296875,-47.239365234375,6.15041015625,0.6302521008403361,0.4901960784313726,2.380952380952381
6.354,IMU0,-0.028740234375000003,-47.3255859375,3.1805859375,1.5406162464985995,6.022408963585434,3.151260504201681
6.364,IMU0,0,-46.42505859375,2.787802734375,8.19327731092437,-1.9607843137254903,1.1904761904761905
6.374,IMU0,1.66693359375,-47.737529296875,5.336103515625,2.100840336134454,-11.27450980392157,0.9803921568627452
6.384,IMU0,1.9639160156250002,-46.88490234375001,5.297783203125,-3.361344537815126,-5.46218487394958,0.9803921568627452
6.394,IMU0,-0.19160156250000002,-46.27177734375,2.787802734375,-14.42577030812325,-13.095238095238097,2.5910364145658265
6.404,IMU0,0.18202148437500001,-45.85025390625,3.4488281250000004,-1.8907563025210086,-1.8907563025210086,1.2605042016806722
6.414,IMU0,2.16509765625,-46.31009765625,5.470224609375,-0.7703081232492998,1.8907563025210086,0.5602240896358543
6.424,IMU0,1.714833984375,-46.837001953125004,4.502636718750001,14.075630252100842,4.69187675070028,2.73109243697479
6.434,IMU0,-0.42152343750000004,-45.878994140625004,2.1746777343750003,4.201680672268908,-8.823529411764707,3.2212885154061626
6.444,IMU0,0.0383203125,-45.88857421875,3.58294921875,6.442577030812325,-7.633053221288516,-0.5602240896358543
6.454,IMU0,2.3375390625000003,-46.15681640625,4.799619140625,-6.512605042016807,-2.170868347338936,0.5602240896358543
6.464,IMU0,1.47533203125,-45.553271484375,3.7937109375,-8.403361344537815,-34.733893557422974,0.700280112044818
6.474,IMU0,-0.63228515625,-46.779521484375,2.059716796875,-1.400560224089636,-27.591036414565828,0.5602240896358543
6.484,IMU0,0.890947265625,-45.170068359375,3.4392480468750004,12.46498599439776,-16.876750700280112,-0.8403361344537815
6.494,IMU0,1.9639160156250002,-45.936474609375004,4.569697265625,0.5602240896358543,-2.8711484593837535,0.2801120448179272
6.504,IMU0,0.7280859375000001,-44.901826171875,3.9086718750000005,-5.742296918767507,-23.529411764705884,0.2801120448179272
6.514,IMU0,0.890947265625,-44.96888671875,3.113525390625,-11.834733893557424,-34.87394957983194,0.0700280112044818
6.524,IMU0,1.2837304687500002,-45.217968750000004,4.23439453125,11.204481792717088,-16.03641456582633,-0.21008403361344538
6.534,IMU0,1.4178515625,-44.585683593750005,4.502636718750001,8.19327731092437,-25.560224089635856,-0.21008403361344538
6.544,IMU0,0.5652246093750001,-44.738964843750004,2.9602441406250004,7.843137254901961,-16.31652661064426,-1.400560224089636
6.554,IMU0,0.9771679687500001,-44.767705078125005,2.529140625,-7.563025210084034,-25.420168067226893,-1.680672268907563
6.564,IMU0,1.005908203125,-44.077939453125005,3.9278320312500004,-20.168067226890756,-22.759103641456583,-2.3109243697478994
6.574,IMU0,1.1687695312500002,-44.738964843750004,4.0619531250000005,-10.57422969187675,-33.12324929971989,-3.711484593837535
6.584,IMU0,0.9771679687500001,-43.915078125,2.442919921875,10.92436974789916,-7.492997198879552,-2.170868347338936
6.594,IMU0,1.063388671875,-43.483974609375004,1.7723144531250001,20.65826330532213,-14.565826330532213,-3.8515406162464987
6.604,IMU0,1.312470703125,-43.560615234375,4.2535546875,3.5714285714285716,-43.0672268907563,-3.5714285714285716
6.614,IMU0,0.51732421875,-44.01087890625,3.956572265625,7.142857142857143,-10.224089635854343,-2.73109243697479
6.624,IMU0,1.1112890625,-43.349853515625,2.39501953125,-1.400560224089636,-11.834733893557424,-3.081232492997199
6.634,IMU0,1.0154882812500001,-43.062451171875004,2.5099804687500002,-29.411764705882355,-41.52661064425771,-3.081232492997199
6.644,IMU0,0.70892578125,-42.995390625000006,4.3876757812500005,-8.123249299719888,-33.89355742296919,-3.641456582633053
6.654,IMU0,1.101708984375,-42.4972265625,3.6308496093750002,-7.42296918767507,-24.229691876750703,-1.6106442577030813
6.664,IMU0,1.302890625,-42.228984375,2.078876953125,-4.69187675070028,-13.58543417366947,-2.2408963585434174
6.674,IMU0,0.24908203125000003,-43.033710937500004,3.5637890625,11.69467787114846,-12.815126050420169,-2.6610644257703084
6.684,IMU0,0.718505859375,-41.491318359375,4.57927734375,0.9103641456582633,4.411764705882353,-2.2408963585434174
6.694,IMU0,1.657353515625,-42.391845703125,2.232158203125,-25.910364145658264,-21.42857142857143,-2.9411764705882355
6.704,IMU0,1.07296875,-40.5045703125,1.427431640625,-7.352941176470589,-21.708683473389357,-0.0700280112044818
6.714,IMU0,0.38320312500000003,-42.008642578125006,3.7937109375,-20.938375350140056,-41.596638655462186,0
6.724,IMU0,1.1304492187500002,-41.184755859375,4.5601171875,4.761904761904762,-12.745098039215687,0.0700280112044818
6.734,IMU0,1.4178515625,-41.09853515625,3.190166015625,12.53501400560224,17.016806722689076,1.3305322128851542
6.744,IMU0,0.067060546875,-40.849453125000004,2.404599609375,17.15686274509804,11.69467787114846,2.2408963585434174
6.754,IMU0,0.8047265625000001,-40.839873046875006,4.646337890625,13.445378151260504,-3.641456582633053,2.450980392156863
6.764,IMU0,0.871787109375,-39.891445312500004,4.0236328125,-6.23249299719888,-21.77871148459384,2.100840336134454
6.774,IMU0,0.8430468750000001,-39.709423828125004,1.47533203125,-7.773109243697479,-3.2913165266106446,2.5910364145658265
6.784,IMU0,0.01916015625,-38.981337890625,2.529140625,2.73109243697479,3.5714285714285716,1.050420168067227
6.794,IMU0,0.737666015625,-39.728583984375,4.282294921875001,-0.21008403361344538,4.901960784313726,-0.2801120448179272
6.804,IMU0,1.1687695312500002,-39.460341796875,2.8836035156250004,11.134453781512606,7.212885154061625,0.9103641456582633
6.814,IMU0,-0.009580078125,-38.895117187500006,2.3471191406250003,13.515406162464986,-7.492997198879552,2.030812324929972
6.824,IMU0,0.21076171875000002,-38.856796875,3.1039453125,5.6722689075630255,-2.801120448179272,0.1400560224089636
6.834,IMU0,0.9388476562500001,-38.540654296875005,3.477568359375,19.747899159663866,17.647058823529413,0.8403361344537815
6.844,IMU0,0.13412109375,-38.396953125,2.7207421875,-1.7507002801120448,20.028011204481793,0.9103641456582633
6.854,IMU0,-0.38320312500000003,-38.26283203125,2.39501953125,-10.294117647058824,-0.4901960784313726,1.1204481792717087
6.864,IMU0,0.8238867187500001,-37.831728515625,3.4105078125,-2.030812324929972,-5.2521008403361344,-1.1204481792717087
6.874,IMU0,1.140029296875,-38.119130859375005,3.9086718750000005,-11.554621848739496,-5.8123249299719895,0.2801120448179272
6.884,IMU0,-0.22034179687500002,-37.582646484375005,3.00814453125,-6.862745098039216,0.700280112044818,0
6.894,IMU0,-0.15328125,-37.3623046875,1.906435546875,1.2605042016806722,12.815126050420169,-0.700280112044818
6.904,IMU0,1.178349609375,-37.074902343750004,3.65958984375,13.23529411764706,24.089635854341736,-1.6106442577030813
6.914,IMU0,0.9196875000000001,-37.11322265625,3.879931640625,2.170868347338936,22.689075630252102,-1.050420168067227
6.924,IMU0,0.0383203125,-36.624638671875005,2.692001953125,-17.016806722689076,13.65546218487395,-0.350140056022409
6.934,IMU0,0.8430468750000001,-36.107314453125,2.1076171875000003,-5.742296918767507,13.375350140056023,-1.4705882352941178
6.944,IMU0,1.8776953125000002,-35.628310546875,3.4679882812500002,-5.112044817927171,10.434173669467787,-0.350140056022409
6.954,IMU0,0.316142578125,-36.873720703125,3.9469921875000002,-1.1204481792717087,19.18767507002801,3.081232492997199
6.964,IMU0,-0.09580078125000001,-36.097734375,2.62494140625,9.243697478991598,42.08683473389356,1.1904761904761905
6.974,IMU0,1.7244140625000002,-35.704951171875,2.442919921875,-6.652661064425771,10.714285714285715,-1.050420168067227
6.984,IMU0,1.302890625,-35.532509765625,3.573369140625,9.103641456582633,34.38375350140056,2.380952380952381
6.994,IMU0,0.10538085937500001,-35.178046875,2.8261230468750003,3.5714285714285716,15.616246498599441,4.201680672268908
7.004,IMU0,0.354462890625,-35.65705078125,2.1076171875000003,6.582633053221289,43.34733893557423,2.6610644257703084
7.014,IMU0,1.9639160156250002,-35.005605468750005,3.247646484375,9.453781512605042,47.82913165266107,2.5210084033613445
7.024,IMU0,0.7664062500000001,-35.427128906250005,4.0236328125,20.168067226890756,44.67787114845939,4.901960784313726
7.034,IMU0,0.45026367187500005,-34.938544921875,2.4333398437500002,5.6722689075630255,29.411764705882355,4.69187675070028
7.044,IMU0,0.21076171875000002,-35.31216796875,2.05013671875,-3.151260504201681,15.826330532212886,2.380952380952381
7.054,IMU0,1.235830078125,-34.047597656250005,3.726650390625,-4.971988795518207,3.5714285714285716,2.6610644257703084
7.064,IMU0,0.296982421875,-34.50744140625,3.2955468750000003,-1.8207282913165266,15.826330532212886,3.2212885154061626
7.074,IMU0,0.28740234375,-34.172138671875004,2.8261230468750003,-7.142857142857143,25.840336134453782,2.801120448179272
7.084,IMU0,0.38320312500000003,-34.18171875,2.60578125,-4.411764705882353,25.70028011204482,2.3109243697478994
7.094,IMU0,0.8238867187500001,-33.578173828125,4.243974609375,1.3305322128851542,20.098039215686274,1.680672268907563
7.104,IMU0,0.10538085937500001,-33.999697265625,3.3913476562500002,2.73109243697479,26.47058823529412,1.9607843137254903
7.114,IMU0,-0.36404296875000003,-33.214130859375004,2.078876953125,15.266106442577032,26.610644257703083,1.4705882352941178
7.124,IMU0,0.689765625,-33.999697265625,3.075205078125,21.07843137254902,41.38655462184874,0
7.134,IMU0,1.5232324218750002,-33.961376953125004,4.27271484375,-2.801120448179272,34.03361344537815,0.0700280112044818
7.144,IMU0,0.316142578125,-33.81767578125,3.6116894531250003,-4.061624649859944,23.87955182072829,0.0700280112044818
7.154,IMU0,-0.5269042968750001,-32.8021875,2.5770410156250003,4.271708683473389,37.74509803921569,-0.700280112044818
7.164,IMU0,0.852626953125,-32.9171484375,3.42966796875,-0.700280112044818,1.4705882352941178,-1.8207282913165266
7.174,IMU0,1.8489550781250002,-33.05126953125,3.6116894531250003,-0.5602240896358543,29.901960784313726,-1.8207282913165266
7.184,IMU0,0.49816406250000006,-33.099169921875,2.711162109375,8.61344537815126,31.51260504201681,0
7.194,IMU0,-0.19160156250000002,-32.610585937500005,2.6728417968750002,-3.781512605042017,40.616246498599445,-0.0700280112044818
7.204,IMU0,1.714833984375,-33.290771484375,3.7649707031250004,-3.011204481792717,35.43417366946779,-0.8403361344537815
7.214,IMU0,1.5328125000000001,-32.754287109375,3.7841308593750003,-10.644257703081234,22.338935574229694,1.1204481792717087
7.224,IMU0,-0.009580078125,-31.67173828125,2.921923828125,28.011204481792717,48.94957983193277,0.42016806722689076
7.234,IMU0,0.38320312500000003,-32.131582031250005,3.094365234375,3.8515406162464987,40.26610644257703,0.5602240896358543
7.244,IMU0,1.59029296875,-32.390244140625,3.879931640625,3.991596638655462,35.15406162464986,-0.700280112044818
7.254,IMU0,1.005908203125,-31.853759765625004,3.5158886718750004,-10.714285714285715,6.862745098039216,2.030812324929972
7.264,IMU0,0.3065625,-31.834599609375,2.442919921875,1.8207282913165266,21.288515406162468,1.8207282913165266
7.274,IMU0,0.5843847656250001,-31.40349609375,3.00814453125,-3.081232492997199,6.23249299719888,0.21008403361344538
7.284,IMU0,0.948427734375,-32.466884765625004,3.9374121093750003,-10.224089635854343,20.65826330532213,0.1400560224089636
7.294,IMU0,0.6035449218750001,-30.646669921875002,3.266806640625,5.602240896358544,17.99719887955182,0.350140056022409
7.304,IMU0,0.699345703125,-31.67173828125,3.3626074218750004,17.15686274509804,27.450980392156865,-1.1204481792717087
7.314,IMU0,1.55197265625,-30.857431640625002,3.5637890625,-0.5602240896358543,5.5322128851540615,-0.0700280112044818
7.324,IMU0,1.2070898437500002,-32.083681640625,3.8320312500000004,-14.775910364145659,-6.23249299719888,1.7507002801120448
7.334,IMU0,-0.18202148437500001,-31.221474609375,2.9889843750000002,5.742296918767507,3.2212885154061626,2.73109243697479
7.344,IMU0,0.7664062500000001,-32.390244140625,3.1231054687500004,4.971988795518207,12.88515406162465,2.100840336134454
7.354,IMU0,1.6381933593750002,-32.390244140625,3.075205078125,4.971988795518207,12.88515406162465,2.100840336134454
7.364,IMU0,1.6381933593750002,-30.579609375,3.075205078125,23.80952380952381,14.84593837535014,1.8207282913165266
7.374,IMU0,0.9196875000000001,-31.231054687500002,3.1422656250000003,-15.266106442577032,-4.971988795518207,3.431372549019608
7.384,IMU0,0.21076171875000002,-30.7712109375,2.845283203125,-3.151260504201681,20.58823529411765,2.450980392156863
7.394,IMU0,0.8238867187500001,-31.096933593750002,3.4871484375,-7.843137254901961,-3.781512605042017,-0.0700280112044818
7.404,IMU0,1.829794921875,-30.6945703125,3.6979101562500003,23.949579831932773,3.991596638655462,1.8207282913165266
7.414,IMU0,1.0154882812500001,-30.44548828125,2.9123437500000002,-2.3109243697478994,13.23529411764706,2.5210084033613445
7.424,IMU0,0.335302734375,-30.02396484375,2.864443359375,-11.134453781512606,-3.2913165266106446,0.9103641456582633
7.434,IMU0,1.0154882812500001,-30.311367187500004,3.73623046875,-13.025210084033613,-22.268907563025213,-0.0700280112044818
7.444,IMU0,1.36037109375,-29.449160156250002,3.50630859375,5.182072829131653,-6.302521008403362,-0.8403361344537815
7.454,IMU0,0.43110351562500004,-31.163994140625,3.113525390625,-1.8907563025210086,4.971988795518207,0.700280112044818
7.464,IMU0,0.19160156250000002,-29.056376953125003,2.9698242187500004,-15.476190476190476,-3.361344537815126,-0.2801120448179272
7.474,IMU0,0.8047265625000001,-29.88984375,3.5158886718750004,-4.131652661064426,2.2408963585434174,-0.9103641456582633
7.484,IMU0,1.4082714843750002,-30.033544921875002,3.3721875000000003,13.65546218487395,-6.722689075630252,-0.2801120448179272
7.494,IMU0,0.9005273437500001,-30.359267578125003,3.3338671875,3.2913165266106446,5.8123249299719895,0.7703081232492998
7.504,IMU0,0.24908203125000003,-29.726982421875,3.81287109375,21.07843137254902,27.591036414565828,0.350140056022409
7.514,IMU0,1.51365234375,-29.861103515625,4.243974609375,20.448179271708685,13.375350140056023,-3.5714285714285716
7.524,IMU0,0.9867480468750001,-29.305458984375,2.998564453125,-1.5406162464985995,-18.907563025210084,-2.030812324929972
7.534,IMU0,0.354462890625,-29.726982421875,3.324287109375,-13.515406162464986,5.042016806722689,0.2801120448179272
7.544,IMU0,0.41194335937500004,-29.238398437500003,3.726650390625,-3.431372549019608,-5.6722689075630255,-1.3305322128851542
7.554,IMU0,1.6094531250000002,-29.774882812500003,3.9948925781250004,-4.341736694677872,-24.019607843137255,-1.1904761904761905
7.564,IMU0,0.929267578125,-29.3916796875,3.400927734375,10.854341736694678,-2.5210084033613445,0.42016806722689076
7.574,IMU0,0,-28.701914062500002,3.0464648437500004,4.971988795518207,-1.7507002801120448,0.7703081232492998
7.584,IMU0,0.6035449218750001,-29.937744140625004,3.5254687500000004,-16.106442577030812,-12.114845938375352,0.0700280112044818
7.594,IMU0,1.85853515625,-27.504404296875002,3.50630859375,-16.456582633053223,-26.89075630252101,-0.6302521008403361
7.604,IMU0,0.8430468750000001,-29.516220703125,3.42966796875,-4.411764705882353,6.932773109243698,2.2408963585434174
7.614,IMU0,-0.316142578125,-29.209658203125002,3.6787500000000004,25.70028011204482,7.42296918767507,2.3109243697478994
7.624,IMU0,0.756826171875,-28.040888671875003,3.7745507812500003,7.913165266106443,3.8515406162464987,0.21008403361344538
7.634,IMU0,1.791474609375,-29.343779296875002,3.8320312500000004,-0.9803921568627452,-2.9411764705882355,0.8403361344537815
7.644,IMU0,0.689765625,-28.893515625000003,3.08478515625,-5.322128851540617,-12.184873949579833,3.431372549019608
7.654,IMU0,-0.38320312500000003,-29.200078125,3.420087890625,-3.9215686274509807,-14.005602240896359,2.6610644257703084
7.664,IMU0,1.43701171875,-29.018056640625,4.2535546875,-19.95798319327731,-15.966386554621849,1.2605042016806722
7.674,IMU0,1.944755859375,-27.7055859375,3.324287109375,-2.73109243697479,0.9803921568627452,2.2408963585434174
7.684,IMU0,0.28740234375,-27.858867187500003,3.496728515625,10.224089635854343,-2.030812324929972,3.011204481792717
7.694,IMU0,-0.13412109375,-27.830126953125003,3.9853125000000005,10.084033613445378,-15.056022408963585,1.6106442577030813
7.704,IMU0,1.07296875,-26.910439453125,3.2189062500000003,-10.784313725490197,-22.408963585434176,-0.700280112044818
7.714,IMU0,1.2645703125,-26.086552734375,3.2859667968750004,-32.84313725490196,-33.26330532212885,1.3305322128851542
7.724,IMU0,0.076640625,-24.745341796875003,3.1997460937500004,-6.512605042016807,-23.599439775910366,1.3305322128851542
7.734,IMU0,-0.20118164062500002,-26.785898437500002,3.88951171875,-1.5406162464985995,-1.7507002801120448,-0.350140056022409
7.744,IMU0,1.8776953125000002,-24.35255859375,3.9182519531250004,10.294117647058824,-4.761904761904762,0.4901960784313726
7.754,IMU0,0.9771679687500001,-24.783662109375,3.1518457031250002,6.372549019607844,-7.633053221288516,1.400560224089636
7.764,IMU0,-0.32572265625,-23.155048828125,3.975732421875,-10.57422969187675,-22.899159663865547,-0.6302521008403361
7.774,IMU0,0.833466796875,-23.921455078125003,3.8607714843750003,8.333333333333334,-2.3109243697478994,-1.8907563025210086
7.784,IMU0,2.2608984375000003,-20.463046875,3.4392480468750004,-7.773109243697479,-10.504201680672269,-2.73109243697479
7.794,IMU0,0.8813671875000001,-21.919218750000002,3.5254687500000004,6.442577030812325,-14.775910364145659,-1.1904761904761905
7.804,IMU0,-0.22034179687500002,-24.611220703125003,3.96615234375,-11.554621848739496,-18.907563025210084,-1.3305322128851542
7.814,IMU0,1.07296875,-27.063720703125,3.6212695312500003,-4.901960784313726,-3.5014005602240896,-1.9607843137254903
7.824,IMU0,2.7590625,-26.009912109375,3.58294921875,5.112044817927171,0.350140056022409,-2.100840336134454
7.834,IMU0,0.24908203125000003,-23.73943359375,3.2859667968750004,-5.882352941176471,-8.263305322128852,-0.9103641456582633
7.844,IMU0,0.2682421875,-21.679716796875002,4.3301953125,-6.442577030812325,-33.19327731092437,-1.050420168067227
7.854,IMU0,1.78189453125,-20.434306640625,3.726650390625,-18.627450980392158,-32.07282913165266,-2.5910364145658265
7.864,IMU0,1.7244140625000002,-18.623671875000003,3.2859667968750004,-1.8207282913165266,-13.445378151260504,-0.9803921568627452
7.874,IMU0,0.067060546875,-18.930234375,3.956572265625,-4.971988795518207,-10.224089635854343,1.1204481792717087
7.884,IMU0,0.814306640625,-19.916982421875,4.2152343750000005,-13.795518207282914,-15.756302521008404,-0.0700280112044818
7.894,IMU0,1.6956738281250001,-19.687060546875003,3.7170703125,8.333333333333334,-20.098039215686274,-1.8207282913165266
7.904,IMU0,1.0921289062500001,-21.813837890625003,3.5925292968750004,8.19327731092437,1.050420168067227,0.4901960784313726
7.914,IMU0,-0.11496093750000001,-23.787333984375003,4.00447265625,12.815126050420169,-22.759103641456583,1.7507002801120448
7.924,IMU0,1.0538085937500001,-20.836669921875,3.7745507812500003,10.854341736694678,-15.266106442577032,0.1400560224089636
7.934,IMU0,1.62861328125,-17.809365234375,3.554208984375,-12.88515406162465,-42.85714285714286,-1.050420168067227
7.944,IMU0,0.929267578125,-13.594130859375001,4.291875,-9.523809523809524,-29.551820728291318,1.2605042016806722
7.954,IMU0,-0.047900390625000004,-10.317744140625,3.50630859375,2.9411764705882355,-10.57422969187675,0.9103641456582633
7.964,IMU0,0.8430468750000001,-9.216035156250001,2.921923828125,-5.322128851540617,-34.03361344537815,0.1400560224089636
7.974,IMU0,1.465751953125,-7.10841796875,2.8931835937500003,-16.73669467787115,-45.30812324929972,0.9103641456582633
7.984,IMU0,1.302890625,-6.025869140625001,4.090693359375,-9.873949579831933,-36.97478991596639,1.7507002801120448
7.994,IMU0,-0.13412109375,-5.815107421875,3.650009765625,3.2212885154061626,-18.627450980392158,1.400560224089636
8.004,IMU0,0.613125,-4.339775390625,2.711162109375,2.380952380952381,-27.73109243697479,-0.1400560224089636
8.014,IMU0,2.08845703125,-3.4392480468750004,3.5350488281250003,28.711484593837536,-9.38375350140056,-0.21008403361344538
8.024,IMU0,0.910107421875,-1.85853515625,4.3876757812500005,-1.1904761904761905,-32.00280112044818,1.9607843137254903
8.034,IMU0,-0.536484375,-1.4465917968750002,3.5158886718750004,-8.61344537815126,-53.01120448179272,-0.6302521008403361
8.044,IMU0,0.536484375,0.23950195312500003,2.7590625,1.8207282913165266,-32.00280112044818,-2.030812324929972
8.054,IMU0,1.5328125000000001,0.63228515625,4.339775390625,-15.686274509803923,-18.837535014005603,-2.030812324929972
8.064,IMU0,0.6610253906250001,2.289638671875,3.822451171875,6.792717086834735,-5.112044817927171,-0.2801120448179272
8.074,IMU0,0.0383203125,2.998564453125,3.266806640625,-3.991596638655462,-23.949579831932773,-1.5406162464985995
8.084,IMU0,1.389111328125,4.991220703125,3.3913476562500002,-0.9103641456582633,-37.18487394957983,-3.431372549019608
8.094,IMU0,1.2933105468750001,4.75171875,4.435576171875001,-28.221288515406165,-49.01960784313726,-1.6106442577030813
8.104,IMU0,1.3220507812500002,7.194638671875,3.554208984375,-10.434173669467787,-37.675070028011206,-0.9803921568627452
8.114,IMU0,0.55564453125,8.669970703125001,3.094365234375,-6.022408963585434,-29.69187675070028,0.2801120448179272
8.124,IMU0,0.9388476562500001,9.589658203125001,4.071533203125,-10.994397759103641,-33.54341736694678,-1.9607843137254903
8.134,IMU0,1.9926562500000002,10.547666015625001,4.358935546875,-10.224089635854343,-53.8515406162465,-1.8207282913165266
8.144,IMU0,1.5232324218750002,11.237431640625001,3.822451171875,-1.400560224089636,-29.20168067226891,0.9803921568627452
8.154,IMU0,0.01916015625,14.42759765625,3.171005859375,-6.0924369747899165,-35.43417366946779,0.1400560224089636
8.164,IMU0,1.7723144531250001,17.387841796875,3.65958984375,-2.6610644257703084,-23.80952380952381,-2.170868347338936
8.174,IMU0,2.289638671875,19.8882421875,3.6404296875,-3.361344537815126,-25.560224089635856,-1.1904761904761905
8.184,IMU0,-0.23950195312500003,22.110820312500003,3.0656250000000003,7.142857142857143,-39.21568627450981,0.350140056022409
8.194,IMU0,-0.21076171875000002,23.289169921875,3.2189062500000003,11.69467787114846,-28.8515406162465,0.6302521008403361
8.204,IMU0,2.29921875,24.00767578125,3.745810546875,13.515406162464986,-42.92717086834734,-1.4705882352941178
8.214,IMU0,2.3375390625000003,24.208857421875003,3.73623046875,23.529411764705884,-22.759103641456583,0.1400560224089636
8.224,IMU0,0.057480468750000006,24.783662109375,3.477568359375,9.943977591036415,-15.056022408963585,1.3305322128851542
8.234,IMU0,0.24908203125000003,25.15728515625,3.171005859375,9.38375350140056,-31.722689075630253,0.1400560224089636
8.244,IMU0,2.29921875,25.473427734375,3.31470703125,10.364145658263306,-18.837535014005603,-0.700280112044818
8.254,IMU0,1.101708984375,25.540488281250003,3.573369140625,-5.5322128851540615,-27.100840336134453,0.42016806722689076
8.264,IMU0,-0.19160156250000002,25.550068359375,3.3721875000000003,8.19327731092437,-16.80672268907563,0.0700280112044818
8.274,IMU0,1.657353515625,25.837470703125003,3.4584082031250003,-3.9215686274509807,-42.85714285714286,-1.1904761904761905
8.284,IMU0,2.155517578125,25.38720703125,3.7937109375,-5.6722689075630255,-19.817927170868348,-0.42016806722689076
8.294,IMU0,0.5077441406250001,25.588388671875002,3.88951171875,0.350140056022409,-39.14565826330532,-0.350140056022409
8.304,IMU0,0.3065625,25.358466796875003,3.5158886718750004,-0.0700280112044818,-16.31652661064426,-2.100840336134454
8.314,IMU0,2.1842578125000003,24.735761718750002,2.615361328125,8.96358543417367,-7.002801120448179,-3.641456582633053
8.324,IMU0,2.31837890625,24.06515625,2.3375390625000003,11.344537815126051,-25.07002801120448,-1.680672268907563
8.334,IMU0,0.258662109375,23.384970703125003,2.24173828125,-24.019607843137255,-40.26610644257703,-0.0700280112044818
8.344,IMU0,0.756826171875,23.404130859375,4.052373046875,-16.38655462184874,-52.38095238095239,-2.801120448179272
8.354,IMU0,1.619033203125,23.059248046875002,3.9086718750000005,-8.823529411764707,-43.34733893557423,-2.5910364145658265
8.364,IMU0,0.9867480468750001,23.73943359375,2.9123437500000002,6.512605042016807,-3.011204481792717,-0.5602240896358543
8.374,IMU0,0.19160156250000002,24.46751953125,3.8703515625000002,-0.9803921568627452,-21.568627450980394,-1.050420168067227
8.384,IMU0,2.289638671875,25.186025390625,5.680986328125,-4.621848739495799,-17.22689075630252,-2.3109243697478994
8.394,IMU0,2.29921875,25.406367187500003,3.899091796875,3.2212885154061626,-10.154061624649861,-1.1204481792717087
8.404,IMU0,0.5460644531250001,25.5596484375,2.1076171875000003,11.414565826330533,-15.406162464985995,0.21008403361344538
8.414,IMU0,0.38320312500000003,25.703349609375003,3.7074902343750002,8.473389355742297,-37.53501400560224,-1.680672268907563
8.424,IMU0,1.542392578125,25.6362890625,5.1061816406250005,-0.42016806722689076,-21.288515406162468,-1.8907563025210086
8.434,IMU0,1.36037109375,25.90453125,2.462080078125,4.271708683473389,-5.322128851540617,0.21008403361344538
8.444,IMU0,0.63228515625,25.597968750000003,2.9889843750000002,-7.142857142857143,-35.99439775910364,0.7703081232492998
8.454,IMU0,1.197509765625,24.984843750000003,4.972060546875,-16.596638655462186,-27.521008403361346,0.700280112044818
8.464,IMU0,1.657353515625,25.1764453125,2.941083984375,-23.10924369747899,-31.442577030812327,0.350140056022409
8.474,IMU0,0.67060546875,25.684189453125,2.20341796875,-7.212885154061625,-18.067226890756302,0.700280112044818
8.484,IMU0,0.37362304687500003,25.856630859375002,3.23806640625,-25.70028011204482,-28.641456582633054,0.4901960784313726
8.494,IMU0,1.178349609375,26.393115234375003,4.052373046875,-7.983193277310924,-18.067226890756302,-0.9103641456582633
8.504,IMU0,1.1112890625,26.776318359375,2.557880859375,18.207282913165265,-13.025210084033613,0.21008403361344538
8.514,IMU0,0.833466796875,26.776318359375,2.3471191406250003,18.207282913165265,-13.025210084033613,0.21008403361344538
8.524,IMU0,0.833466796875,26.642197265625,2.3471191406250003,-7.002801120448179,-29.69187675070028,-0.9103641456582633
8.534,IMU0,0.8622070312500001,26.61345703125,3.975732421875,4.761904761904762,-8.543417366946779,-0.7703081232492998
8.544,IMU0,1.0538085937500001,26.431435546875,3.171005859375,4.621848739495799,-14.42577030812325,-1.5406162464985995
8.554,IMU0,0.871787109375,26.661357421875003,2.01181640625,-6.792717086834735,-32.77310924369748,-1.3305322128851542
8.564,IMU0,0.6035449218750001,26.373955078125,3.1518457031250002,17.016806722689076,-16.666666666666668,-0.5602240896358543
8.574,IMU0,0.9196875000000001,26.182353515625003,4.263134765625001,28.711484593837536,-18.137254901960784,-2.9411764705882355
8.584,IMU0,0.9963281250000001,26.306894531250002,2.4237597656250003,-8.683473389355743,-29.411764705882355,-1.1904761904761905
8.594,IMU0,1.1687695312500002,26.4026953125,2.05013671875,-0.6302521008403361,-4.901960784313726,-0.1400560224089636
8.604,IMU0,1.3316308593750001,25.971591796875003,3.5925292968750004,3.5014005602240896,2.100840336134454,-0.5602240896358543
8.614,IMU0,0.46942382812500005,25.971591796875003,3.6308496093750002,-7.352941176470589,-29.131652661064425,-2.030812324929972
8.624,IMU0,0.143701171875,26.096132812500002,2.519560546875,-14.005602240896359,-18.067226890756302,-1.3305322128851542
8.634,IMU0,1.2166699218750001,26.172773437500002,2.0980371093750003,-3.991596638655462,-24.50980392156863,-1.050420168067227
8.644,IMU0,1.4561718750000001,25.990751953125002,3.803291015625,-5.112044817927171,-25.210084033613448,0
8.654,IMU0,0.852626953125,26.009912109375,3.6979101562500003,0.5602240896358543,-10.854341736694678,-0.42016806722689076
8.664,IMU0,0.6610253906250001,26.258994140625003,2.711162109375,-21.288515406162468,-20.168067226890756,0.0700280112044818
8.674,IMU0,1.6477734375000002,26.34521484375,2.7207421875,-3.711484593837535,-21.84873949579832,-0.2801120448179272
8.684,IMU0,0.737666015625,26.182353515625003,4.00447265625,-2.030812324929972,-7.072829131652662,-0.0700280112044818
8.694,IMU0,0.11496093750000001,26.048232421875003,3.247646484375,0.700280112044818,-13.795518207282914,-0.700280112044818
8.704,IMU0,0.38320312500000003,26.393115234375003,2.29921875,-10.644257703081234,-9.943977591036415,-0.9103641456582633
8.714,IMU0,1.005908203125,25.990751953125002,2.289638671875,-21.84873949579832,-28.36134453781513,-0.0700280112044818
8.724,IMU0,1.4082714843750002,25.77041015625,3.6979101562500003,-9.103641456582633,-28.011204481792717,0
8.734,IMU0,-0.01916015625,25.732089843750003,3.58294921875,-5.322128851540617,-14.42577030812325,2.030812324929972
8.744,IMU0,0.680185546875,25.38720703125,2.9794042968750003,-2.100840336134454,-8.403361344537815,2.2408963585434174
8.754,IMU0,1.39869140625,25.617128906250002,2.7590625,6.652661064425771,7.633053221288516,2.100840336134454
8.764,IMU0,-0.01916015625,25.607548828125,2.069296875,-3.431372549019608,13.58543417366947,3.361344537815126
8.774,IMU0,-0.12454101562500001,25.435107421875003,3.35302734375,3.9215686274509807,1.8907563025210086,2.030812324929972
8.784,IMU0,2.5004003906250003,25.31056640625,3.4392480468750004,-5.322128851540617,-6.792717086834735,0.8403361344537815
8.794,IMU0,1.74357421875,25.320146484375,2.4141796875000003,-0.7703081232492998,3.151260504201681,3.991596638655462
8.804,IMU0,-0.9867480468750001,25.013583984375003,2.519560546875,4.761904761904762,5.8123249299719895,5.6722689075630255
8.814,IMU0,0.057480468750000006,25.138125000000002,3.1422656250000003,11.064425770308123,8.123249299719888,2.73109243697479
8.824,IMU0,2.5674609375000004,25.128544921875,2.8740234375,1.2605042016806722,10.154061624649861,1.1204481792717087
8.834,IMU0,1.1879296875,24.994423828125,2.4333398437500002,-0.0700280112044818,3.781512605042017,3.711484593837535
8.844,IMU0,-0.699345703125,24.716601562500003,2.921923828125,4.621848739495799,6.512605042016807,4.551820728291316
8.854,IMU0,0.67060546875,24.448359375000003,2.9794042968750003,5.602240896358544,3.8515406162464987,1.6106442577030813
8.864,IMU0,2.366279296875,24.8315625,2.35669921875,2.5910364145658265,-5.322128851540617,0.9103641456582633
8.874,IMU0,0.028740234375000003,24.362138671875,2.9027636718750003,11.204481792717088,14.215686274509805,3.5714285714285716
8.884,IMU0,-0.814306640625,24.362138671875,2.9027636718750003,0.1400560224089636,17.647058823529413,0.8403361344537815
8.894,IMU0,1.1687695312500002,24.228017578125,2.6728417968750002,-11.134453781512606,-3.5714285714285716,-0.9803921568627452
8.904,IMU0,1.302890625,24.342978515625003,2.557880859375,2.8711484593837535,28.641456582633054,1.680672268907563
8.914,IMU0,-0.028740234375000003,24.103476562500003,3.113525390625,-2.3109243697478994,9.73389355742297,1.1204481792717087
8.924,IMU0,0.536484375,23.978935546875,2.9889843750000002,-0.8403361344537815,11.27450980392157,-0.8403361344537815
8.934,IMU0,1.465751953125,23.998095703125003,2.7590625,2.380952380952381,10.784313725490197,-1.3305322128851542
8.944,IMU0,0.852626953125,23.883134765625,2.01181640625,4.901960784313726,19.047619047619047,-0.4901960784313726
8.954,IMU0,-0.21076171875000002,23.595732421875002,2.70158203125,-11.764705882352942,20.518207282913167,-0.4901960784313726
8.964,IMU0,0.7855664062500001,23.7202734375,3.3051269531250003,-6.442577030812325,22.478991596638657,-0.9103641456582633
8.974,IMU0,1.9734960937500001,23.528671875,2.692001953125,-12.044817927170868,24.92997198879552,-1.2605042016806722
8.984,IMU0,0.67060546875,23.308330078125003,2.7590625,-13.445378151260504,16.176470588235293,0.21008403361344538
8.994,IMU0,-0.20118164062500002,23.222109375000002,3.0560449218750003,-4.131652661064426,22.969187675070028,-0.1400560224089636
9.004,IMU0,1.2166699218750001,23.135888671875,2.5099804687500002,2.8711484593837535,29.831932773109244,-3.011204481792717
9.014,IMU0,1.7627343750000002,22.886806640625,2.28005859375,11.134453781512606,31.302521008403364,-0.6302521008403361
9.024,IMU0,0.076640625,22.6473046875,2.54830078125,5.182072829131653,30.11204481792717,0.9103641456582633
9.034,IMU0,0.22034179687500002,22.608984375000002,2.7303222656250004,-5.882352941176471,30.81232492997199,-0.0700280112044818
9.044,IMU0,1.2454101562500002,22.331162109375,2.7303222656250004,-4.411764705882353,40.54621848739496,0.0700280112044818
9.054,IMU0,1.4849121093750002,22.426962890625003,1.8872753906250002,-17.22689075630252,23.38935574229692,1.2605042016806722
9.064,IMU0,-0.22034179687500002,22.129980468750002,2.29921875,-17.647058823529413,16.946778711484594,1.9607843137254903
9.074,IMU0,0.45026367187500005,21.564755859375,2.8165429687500003,-5.742296918767507,20.868347338935575,0.9803921568627452
9.084,IMU0,1.1112890625,21.641396484375,2.85486328125,-2.380952380952381,24.57983193277311,0.9803921568627452
9.094,IMU0,0.7280859375000001,21.440214843750002,2.2513183593750004,-0.9803921568627452,38.93557422969188,3.011204481792717
9.104,IMU0,0.22992187500000003,20.78876953125,2.385439453125,0.4901960784313726,29.6218487394958,1.1204481792717087
9.114,IMU0,0.7472460937500001,20.348085937500002,2.8261230468750003,1.8907563025210086,26.47058823529412,1.400560224089636
9.124,IMU0,0.9388476562500001,20.051103515625,2.375859375,0.9803921568627452,34.45378151260504,2.801120448179272
9.134,IMU0,0.795146484375,19.581679687500003,2.845283203125,8.753501400560225,48.24929971988796,3.5014005602240896
9.144,IMU0,-0.162861328125,18.997294921875,2.634521484375,1.680672268907563,32.07282913165266,1.8907563025210086
9.154,IMU0,1.1687695312500002,18.5853515625,3.0273046875,-7.913165266106443,46.84873949579832,0.8403361344537815
9.164,IMU0,1.2454101562500002,18.355429687500003,3.31470703125,-9.593837535014005,36.06442577030813,1.9607843137254903
9.174,IMU0,-0.162861328125,18.5853515625,2.375859375,-19.257703081232496,27.66106442577031,2.6610644257703084
9.184,IMU0,0.37362304687500003,19.102675781250003,1.9639160156250002,-10.714285714285715,19.95798319327731,1.7507002801120448
9.194,IMU0,1.5998730468750002,18.8919140625,3.075205078125,7.492997198879552,42.436974789915965,2.170868347338936
9.204,IMU0,0.5460644531250001,18.805693359375002,2.845283203125,-0.9803921568627452,33.19327731092437,3.081232492997199
9.214,IMU0,-0.047900390625000004,18.5853515625,2.60578125,13.025210084033613,39.77591036414566,1.9607843137254903
9.224,IMU0,1.0921289062500001,18.642832031250002,2.4141796875000003,18.067226890756302,53.50140056022409,0.9103641456582633
9.234,IMU0,1.3316308593750001,18.5853515625,2.7303222656250004,7.352941176470589,39.285714285714285,0.9803921568627452
9.244,IMU0,0.22034179687500002,18.230888671875,3.113525390625,-1.8907563025210086,34.03361344537815,1.9607843137254903
9.254,IMU0,0.46942382812500005,18.365009765625,2.232158203125,-20.868347338935575,27.100840336134453,2.2408963585434174
